,score,phase,subject,round,block1,block2,block3,dim1,dim2,dim3,dim4,X,dim1_choice_value,dim1_category,Y,dim2_choice_value,dim2_category,Z,dim3_choice_value,dim3_category,T,dim4_choice_value,dim4_category
0,72.0,P2-only,oct1801,1,"[2213, 1111, 1222]","[3123, 2321, 2132]","[3312, 3231, 1333]","(1, 1, 2, 2, 2, 3, 1, 3, 3)","(1, 2, 3, 1, 2, 3, 1, 2, 3)","(1, 2, 2, 1, 1, 3, 2, 3, 3)","(1, 1, 2, 2, 2, 3, 1, 3, 3)",144.815,55.556,222,223.33300000000003,34.074,111,135.555,46.296,222,144.815,55.556,222
1,61.0,P2-only,oct1801,2,"[3213, 1311, 1222]","[2323, 3332, 2231]","[2112, 3121, 1133]","(1, 1, 3, 2, 2, 3, 1, 2, 3)","(1, 2, 3, 1, 2, 3, 1, 2, 3)","(2, 2, 3, 2, 3, 3, 1, 1, 1)","(1, 1, 2, 2, 3, 3, 1, 2, 3)",34.444,45.185,122,223.33300000000003,34.074,111,307.03700000000003,17.778,223,43.333,54.074,122
2,75.0,P2-only,oct1801,3,"[2213, 2131, 1221]","[1333, 3123, 1112]","[3232, 2322, 3311]","(1, 2, 2, 1, 1, 3, 2, 3, 3)","(1, 1, 3, 2, 3, 3, 1, 2, 2)","(1, 2, 2, 1, 1, 3, 2, 3, 3)","(1, 2, 3, 1, 2, 3, 1, 2, 3)",135.555,46.296,222,132.963,43.704,222,135.555,46.296,222,223.33300000000003,34.074,111
3,39.0,P2-only,oct1801,4,"[2231, 2113, 1223]","[3121, 3333, 3212]","[1311, 1132, 2322]","(1, 2, 2, 3, 3, 3, 1, 1, 2)","(1, 3, 3, 1, 2, 3, 1, 2, 2)","(1, 2, 2, 1, 2, 3, 1, 3, 3)","(1, 2, 3, 1, 2, 3, 1, 2, 3)",328.889,39.63,223,12.963000000000001,23.704,122,33.703,44.444,122,223.33300000000003,34.074,111
4,54.0,P2-only,oct1801,5,"[1113, 3311, 2212]","[3233, 2131, 1332]","[1221, 3122, 2323]","(1, 2, 3, 1, 2, 3, 1, 2, 3)","(1, 2, 3, 1, 2, 3, 1, 2, 3)","(1, 2, 3, 1, 2, 3, 1, 2, 3)","(1, 1, 1, 3, 3, 3, 2, 2, 2)",223.33300000000003,34.074,111,223.33300000000003,34.074,111,223.33300000000003,34.074,111,454.815,65.556,333
5,57.0,P2-only,oct1801,6,"[3333, 2232, 1131]","[1312, 2113, 3211]","[1223, 3122, 2321]","(1, 2, 3, 1, 2, 3, 1, 2, 3)","(1, 2, 3, 1, 2, 3, 1, 2, 3)","(1, 2, 3, 1, 2, 3, 1, 2, 3)","(3, 3, 3, 1, 1, 1, 2, 2, 2)",223.33300000000003,34.074,111,223.33300000000003,34.074,111,223.33300000000003,34.074,111,394.815,5.556,333
6,54.0,P2-only,oct1801,7,"[1222, 3121, 2323]","[3233, 1331, 2132]","[3312, 1113, 2211]","(1, 2, 3, 1, 2, 3, 1, 2, 3)","(1, 2, 3, 1, 2, 3, 1, 2, 3)","(1, 2, 3, 1, 2, 3, 1, 2, 3)","(2, 2, 2, 3, 3, 3, 1, 1, 1)",223.33300000000003,34.074,111,223.33300000000003,34.074,111,223.33300000000003,34.074,111,415.92600000000004,26.667,333
7,74.0,P2-only,oct1801,8,"[1131, 2321, 3211]","[2233, 3123, 1313]","[2112, 1222, 3332]","(1, 2, 3, 1, 2, 3, 1, 2, 3)","(1, 1, 1, 3, 3, 3, 2, 2, 2)","(1, 2, 3, 1, 2, 3, 1, 2, 3)","(1, 2, 3, 1, 2, 3, 1, 2, 3)",223.33300000000003,34.074,111,454.815,65.556,333,223.33300000000003,34.074,111,223.33300000000003,34.074,111
8,38.0,P2-only,oct1801,9,"[3313, 1223, 2133]","[3121, 2211, 1331]","[1112, 2322, 3232]","(1, 2, 3, 1, 2, 3, 1, 2, 3)","(3, 3, 3, 1, 1, 1, 2, 2, 2)","(1, 2, 3, 1, 2, 3, 1, 2, 3)","(1, 2, 3, 1, 2, 3, 1, 2, 3)",223.33300000000003,34.074,111,394.815,5.556,333,223.33300000000003,34.074,111,223.33300000000003,34.074,111
9,54.0,P2-only,oct1801,10,"[2233, 1221, 3212]","[2111, 3123, 1132]","[3331, 2322, 1313]","(1, 2, 3, 1, 2, 3, 1, 2, 3)","(1, 2, 3, 1, 2, 3, 1, 2, 3)","(2, 2, 2, 1, 1, 1, 3, 3, 3)","(1, 2, 3, 1, 2, 3, 1, 2, 3)",223.33300000000003,34.074,111,223.33300000000003,34.074,111,425.92600000000004,36.667,333,223.33300000000003,34.074,111
10,56.0,P2-only,oct1801,11,"[2321, 3313, 1332]","[3122, 1111, 2133]","[3231, 1223, 2212]","(1, 2, 3, 1, 2, 3, 1, 2, 3)","(1, 2, 3, 1, 2, 3, 1, 2, 3)","(3, 3, 3, 1, 1, 1, 2, 2, 2)","(1, 2, 3, 1, 2, 3, 1, 2, 3)",223.33300000000003,34.074,111,223.33300000000003,34.074,111,394.815,5.556,333,223.33300000000003,34.074,111
11,56.0,P2-only,oct1801,12,"[2111, 3122, 1133]","[2232, 1221, 3213]","[3331, 1312, 2323]","(1, 2, 3, 1, 2, 3, 1, 2, 3)","(1, 2, 3, 1, 2, 3, 1, 2, 3)","(1, 1, 1, 2, 2, 2, 3, 3, 3)","(1, 2, 3, 1, 2, 3, 1, 2, 3)",223.33300000000003,34.074,111,223.33300000000003,34.074,111,459.259,70.0,333,223.33300000000003,34.074,111
12,20.0,P2-only,oct1801,13,"[3231, 3323, 3112]","[2311, 2222, 2133]","[1213, 1121, 1332]","(3, 3, 3, 2, 2, 2, 1, 1, 1)","(1, 2, 3, 1, 2, 3, 1, 2, 3)","(1, 2, 3, 1, 2, 3, 1, 2, 3)","(1, 2, 3, 1, 2, 3, 1, 2, 3)",389.259,0.0,333,223.33300000000003,34.074,111,223.33300000000003,34.074,111,223.33300000000003,34.074,111
13,89.0,P2-only,oct1801,14,"[1312, 1231, 1123]","[2333, 2222, 2111]","[3213, 3132, 3321]","(1, 1, 1, 2, 2, 2, 3, 3, 3)","(1, 2, 3, 1, 2, 3, 1, 2, 3)","(1, 2, 3, 1, 2, 3, 1, 2, 3)","(1, 2, 3, 1, 2, 3, 1, 2, 3)",459.259,70.0,333,223.33300000000003,34.074,111,223.33300000000003,34.074,111,223.33300000000003,34.074,111
14,93.0,P2-only,oct1801,15,"[1322, 1131, 1213]","[3221, 2311, 2232]","[2123, 3112, 3333]","(1, 1, 1, 2, 2, 3, 2, 3, 3)","(1, 2, 3, 1, 1, 2, 2, 3, 3)","(1, 2, 3, 2, 2, 3, 1, 1, 3)","(1, 2, 3, 1, 2, 3, 1, 2, 3)",357.778,68.519,223,26.665999999999997,37.407,122,21.481,32.222,122,223.33300000000003,34.074,111
15,90.0,P2-only,oct1801,16,"[1322, 1231, 1113]","[3311, 2121, 2333]","[3223, 3132, 2212]","(1, 1, 1, 2, 2, 3, 2, 3, 3)","(1, 2, 3, 1, 1, 3, 2, 2, 3)","(1, 2, 3, 1, 3, 3, 1, 2, 2)","(1, 2, 3, 1, 2, 3, 1, 2, 3)",357.778,68.519,223,25.185000000000002,35.926,122,21.852000000000004,32.593,122,223.33300000000003,34.074,111
16,89.0,P2-only,oct1801,17,"[1212, 1323, 1131]","[2122, 2311, 2233]","[3113, 3332, 3221]","(1, 1, 1, 2, 2, 2, 3, 3, 3)","(1, 2, 3, 1, 2, 3, 1, 2, 3)","(1, 2, 3, 1, 2, 3, 1, 2, 3)","(1, 2, 3, 1, 2, 3, 1, 2, 3)",459.259,70.0,333,223.33300000000003,34.074,111,223.33300000000003,34.074,111,223.33300000000003,34.074,111
17,84.0,P2-only,oct1801,18,"[1232, 1113, 1321]","[2211, 2122, 3223]","[3131, 2333, 3312]","(1, 1, 1, 2, 2, 3, 2, 3, 3)","(1, 2, 3, 1, 2, 3, 1, 2, 3)","(1, 2, 3, 1, 2, 2, 1, 3, 3)","(1, 2, 3, 1, 2, 2, 1, 3, 3)",357.778,68.519,223,223.33300000000003,34.074,111,24.814999999999998,35.556,122,24.814999999999998,35.556,122
18,83.0,P2-only,oct1801,19,"[1323, 1132, 1211]","[2312, 3331, 2233]","[3222, 2121, 3113]","(1, 1, 1, 2, 2, 3, 2, 3, 3)","(1, 2, 3, 1, 2, 3, 1, 2, 3)","(1, 2, 3, 2, 3, 3, 1, 1, 2)","(1, 2, 3, 1, 3, 3, 1, 2, 2)",357.778,68.519,223,223.33300000000003,34.074,111,20.0,30.741,122,21.852000000000004,32.593,122
19,96.0,P2-only,oct1801,20,"[1233, 1321, 1112]","[2211, 3131, 2332]","[3313, 3222, 2123]","(1, 1, 1, 2, 2, 3, 2, 3, 3)","(1, 2, 3, 1, 1, 2, 2, 3, 3)","(1, 2, 3, 1, 2, 3, 1, 2, 3)","(1, 2, 3, 1, 3, 3, 1, 2, 2)",357.778,68.519,223,26.665999999999997,37.407,122,223.33300000000003,34.074,111,21.852000000000004,32.593,122
20,91.0,P2-only,oct1801,21,"[1322, 1133, 1211]","[2121, 3331, 2313]","[2232, 3112, 3223]","(1, 1, 1, 2, 2, 3, 2, 3, 3)","(1, 2, 3, 1, 1, 3, 2, 2, 3)","(1, 2, 3, 1, 3, 3, 1, 2, 2)","(1, 2, 3, 1, 2, 3, 1, 2, 3)",357.778,68.519,223,25.185000000000002,35.926,122,21.852000000000004,32.593,122,223.33300000000003,34.074,111
21,90.0,P2-only,oct1801,22,"[1233, 1111, 1322]","[2331, 3221, 3132]","[3313, 2212, 2123]","(1, 1, 1, 2, 3, 3, 2, 2, 3)","(1, 2, 3, 1, 1, 2, 2, 3, 3)","(1, 2, 3, 1, 2, 3, 1, 2, 3)","(1, 2, 3, 2, 3, 3, 1, 1, 2)",356.29600000000005,67.037,223,26.665999999999997,37.407,122,223.33300000000003,34.074,111,20.0,30.741,122
22,84.0,P2-only,oct1801,23,"[1133, 1321, 1212]","[2231, 3111, 3223]","[2313, 3332, 2122]","(1, 1, 1, 2, 3, 3, 2, 2, 3)","(1, 2, 3, 1, 1, 3, 2, 2, 3)","(1, 2, 3, 1, 2, 2, 1, 3, 3)","(1, 2, 3, 1, 2, 3, 1, 2, 3)",356.29600000000005,67.037,223,25.185000000000002,35.926,122,24.814999999999998,35.556,122,223.33300000000003,34.074,111
23,88.0,P2-only,oct1801,24,"[1111, 1323, 1232]","[2331, 2122, 2213]","[3312, 3221, 3133]","(1, 1, 1, 2, 2, 2, 3, 3, 3)","(1, 2, 3, 1, 2, 3, 1, 2, 3)","(1, 2, 3, 1, 2, 3, 1, 2, 3)","(1, 2, 3, 1, 2, 3, 1, 2, 3)",459.259,70.0,333,223.33300000000003,34.074,111,223.33300000000003,34.074,111,223.33300000000003,34.074,111
24,100.0,P2-only,oct1801,25,"[2231, 1132, 1321]","[3111, 1213, 2312]","[2123, 3333, 3222]","(1, 1, 2, 1, 2, 3, 2, 3, 3)","(1, 1, 2, 1, 2, 3, 2, 3, 3)","(1, 2, 3, 1, 2, 3, 1, 2, 3)","(2, 3, 3, 1, 1, 1, 2, 2, 3)",46.666,57.407,122,46.666,57.407,122,223.33300000000003,34.074,111,305.185,15.926,223
25,33.0,P2-only,oct1803,1,"[2213, 3312, 2132]","[1111, 3231, 3123]","[1333, 1222, 2321]","(2, 2, 3, 1, 3, 3, 1, 1, 2)","(2, 2, 3, 1, 1, 3, 1, 2, 3)","(1, 2, 3, 1, 1, 2, 2, 3, 3)","(1, 1, 3, 1, 2, 3, 2, 2, 3)",108.889,19.63,222,12.222000000000001,22.963,122,26.665999999999997,37.407,122,36.296,47.037,122
26,91.0,P2-only,oct1803,2,"[2231, 1311, 3121]","[1222, 2112, 3332]","[2323, 1133, 3213]","(1, 2, 3, 1, 2, 3, 1, 2, 3)","(1, 1, 1, 2, 2, 2, 3, 3, 3)","(1, 2, 3, 1, 2, 3, 1, 2, 3)","(1, 2, 3, 1, 2, 3, 1, 2, 3)",223.33300000000003,34.074,111,459.259,70.0,333,223.33300000000003,34.074,111,223.33300000000003,34.074,111
27,74.0,P2-only,oct1803,3,"[2131, 3311, 2322]","[3232, 1112, 1221]","[1333, 2213, 3123]","(2, 2, 3, 1, 1, 3, 1, 2, 3)","(1, 1, 2, 1, 2, 2, 3, 3, 3)","(1, 3, 3, 1, 2, 2, 1, 2, 3)","(1, 2, 3, 1, 2, 3, 1, 2, 3)",12.222000000000001,22.963,122,348.148,58.889,223,14.443999999999999,25.185,122,223.33300000000003,34.074,111
28,75.0,P2-only,oct1803,4,"[2231, 1311, 3121]","[3333, 3212, 2322]","[2113, 1132, 1223]","(1, 2, 3, 2, 3, 3, 1, 1, 2)","(1, 1, 1, 2, 2, 3, 2, 3, 3)","(1, 2, 3, 2, 3, 3, 1, 1, 2)","(1, 2, 3, 1, 2, 3, 1, 2, 3)",20.0,30.741,122,357.778,68.519,223,20.0,30.741,122,223.33300000000003,34.074,111
29,92.0,P2-only,oct1803,5,"[2131, 3311, 1221]","[1332, 1113, 3122]","[2323, 3233, 2212]","(1, 2, 3, 1, 1, 3, 2, 2, 3)","(1, 1, 1, 2, 2, 3, 2, 3, 3)","(1, 2, 3, 1, 1, 3, 2, 2, 3)","(1, 2, 3, 1, 2, 3, 1, 2, 3)",25.185000000000002,35.926,122,357.778,68.519,223,25.185000000000002,35.926,122,223.33300000000003,34.074,111
30,83.0,P2-only,oct1803,6,"[1131, 3211, 2321]","[2232, 2113, 1223]","[1312, 3333, 3122]","(1, 2, 3, 1, 2, 2, 1, 3, 3)","(1, 1, 1, 2, 3, 3, 2, 2, 3)","(1, 2, 3, 1, 2, 2, 1, 3, 3)","(1, 2, 3, 1, 2, 3, 1, 2, 3)",24.814999999999998,35.556,122,356.29600000000005,67.037,223,24.814999999999998,35.556,122,223.33300000000003,34.074,111
31,77.0,P2-only,oct1803,7,"[1331, 1113, 3121]","[2132, 2211, 2323]","[3312, 3233, 1222]","(1, 1, 3, 2, 2, 2, 1, 3, 3)","(1, 1, 3, 1, 2, 3, 2, 2, 3)","(1, 1, 3, 1, 2, 3, 2, 2, 3)","(1, 2, 3, 1, 2, 3, 1, 2, 3)",335.92600000000004,46.667,223,36.296,47.037,122,36.296,47.037,122,223.33300000000003,34.074,111
32,88.0,P2-only,oct1803,8,"[1131, 3211, 2321]","[3332, 1313, 1222]","[2233, 3123, 2112]","(1, 2, 3, 1, 1, 3, 2, 2, 3)","(1, 1, 1, 2, 2, 3, 2, 3, 3)","(1, 2, 3, 2, 3, 3, 1, 1, 2)","(1, 2, 3, 1, 2, 3, 1, 2, 3)",25.185000000000002,35.926,122,357.778,68.519,223,20.0,30.741,122,223.33300000000003,34.074,111
33,92.0,P2-only,oct1803,9,"[1331, 2211, 3121]","[3232, 1112, 1223]","[3313, 2322, 2133]","(1, 2, 3, 1, 1, 3, 2, 2, 3)","(1, 1, 1, 2, 2, 3, 2, 3, 3)","(1, 2, 3, 1, 2, 2, 1, 3, 3)","(1, 2, 3, 1, 2, 3, 1, 2, 3)",25.185000000000002,35.926,122,357.778,68.519,223,24.814999999999998,35.556,122,223.33300000000003,34.074,111
34,55.0,P2-only,oct1803,10,"[3331, 2111, 3123]","[1132, 3212, 1221]","[2233, 2322, 1313]","(2, 3, 3, 1, 1, 3, 1, 2, 2)","(1, 1, 3, 1, 2, 2, 2, 3, 3)","(1, 1, 3, 1, 2, 2, 2, 3, 3)","(1, 2, 3, 1, 2, 3, 1, 2, 3)",101.852,12.593,222,137.778,48.519,222,137.778,48.519,222,223.33300000000003,34.074,111
35,83.0,P2-only,oct1803,11,"[3231, 1111, 2321]","[2133, 2212, 1223]","[3313, 1332, 3122]","(1, 2, 3, 1, 2, 2, 1, 3, 3)","(1, 1, 1, 2, 3, 3, 2, 2, 3)","(1, 2, 3, 1, 2, 2, 1, 3, 3)","(1, 2, 3, 1, 2, 3, 1, 2, 3)",24.814999999999998,35.556,122,356.29600000000005,67.037,223,24.814999999999998,35.556,122,223.33300000000003,34.074,111
36,76.0,P2-only,oct1803,12,"[3331, 2111, 1221]","[2232, 3213, 2323]","[3122, 1312, 1133]","(1, 2, 3, 2, 2, 3, 1, 1, 3)","(1, 1, 1, 2, 3, 3, 2, 2, 3)","(1, 2, 3, 2, 2, 3, 1, 1, 3)","(1, 2, 3, 1, 2, 3, 1, 2, 3)",21.481,32.222,122,356.29600000000005,67.037,223,21.481,32.222,122,223.33300000000003,34.074,111
37,86.0,P2-only,oct1803,13,"[1332, 2311, 1121]","[3231, 3112, 3323]","[1213, 2133, 2222]","(1, 1, 2, 3, 3, 3, 1, 2, 2)","(1, 1, 2, 1, 2, 3, 2, 3, 3)","(1, 3, 3, 1, 2, 3, 1, 2, 2)","(1, 2, 3, 1, 2, 3, 1, 2, 3)",341.85200000000003,52.593,223,46.666,57.407,122,12.963000000000001,23.704,122,223.33300000000003,34.074,111
38,91.0,P2-only,oct1803,14,"[1231, 1312, 3321]","[3132, 2111, 1123]","[2333, 3213, 2222]","(1, 1, 3, 1, 2, 3, 2, 2, 3)","(1, 1, 2, 1, 2, 3, 2, 3, 3)","(2, 3, 3, 1, 1, 1, 2, 2, 3)","(1, 2, 3, 1, 2, 3, 1, 2, 3)",36.296,47.037,122,46.666,57.407,122,305.185,15.926,223,223.33300000000003,34.074,111
39,81.0,P2-only,oct1803,15,"[1131, 2311, 3221]","[2232, 3112, 2123]","[1322, 1213, 3333]","(1, 2, 3, 2, 2, 3, 1, 1, 3)","(1, 1, 1, 2, 2, 3, 2, 3, 3)","(1, 2, 3, 1, 1, 2, 2, 3, 3)","(1, 2, 3, 1, 2, 3, 1, 2, 3)",21.481,32.222,122,357.778,68.519,223,26.665999999999997,37.407,122,223.33300000000003,34.074,111
40,90.0,P2-only,oct1803,16,"[1231, 3311, 2121]","[3132, 2212, 1322]","[3223, 2333, 1113]","(1, 2, 3, 1, 2, 3, 1, 2, 3)","(1, 1, 1, 2, 2, 2, 3, 3, 3)","(1, 2, 3, 1, 2, 3, 1, 2, 3)","(1, 2, 3, 1, 2, 3, 1, 2, 3)",223.33300000000003,34.074,111,459.259,70.0,333,223.33300000000003,34.074,111,223.33300000000003,34.074,111
41,90.0,P2-only,oct1803,17,"[1131, 2311, 3221]","[3332, 1212, 2122]","[1323, 3113, 2233]","(1, 2, 3, 1, 2, 3, 1, 2, 3)","(1, 1, 1, 2, 2, 2, 3, 3, 3)","(1, 2, 3, 1, 2, 3, 1, 2, 3)","(1, 2, 3, 1, 2, 3, 1, 2, 3)",223.33300000000003,34.074,111,459.259,70.0,333,223.33300000000003,34.074,111,223.33300000000003,34.074,111
42,90.0,P2-only,oct1803,18,"[3131, 2211, 1321]","[1232, 3312, 2122]","[3223, 2333, 1113]","(1, 2, 3, 1, 2, 3, 1, 2, 3)","(1, 1, 1, 2, 2, 2, 3, 3, 3)","(1, 2, 3, 1, 2, 3, 1, 2, 3)","(1, 2, 3, 1, 2, 3, 1, 2, 3)",223.33300000000003,34.074,111,459.259,70.0,333,223.33300000000003,34.074,111,223.33300000000003,34.074,111
43,56.0,P2-only,oct1803,19,"[3331, 1132, 2233]","[1211, 2312, 3113]","[1323, 3222, 2121]","(1, 2, 3, 1, 2, 3, 1, 2, 3)","(1, 2, 3, 1, 2, 3, 1, 2, 3)","(1, 2, 3, 1, 2, 3, 1, 2, 3)","(3, 3, 3, 1, 1, 1, 2, 2, 2)",223.33300000000003,34.074,111,223.33300000000003,34.074,111,223.33300000000003,34.074,111,394.815,5.556,333
44,54.0,P2-only,oct1803,20,"[2332, 1321, 3313]","[1233, 3222, 2211]","[1112, 2123, 3131]","(1, 2, 3, 1, 2, 3, 1, 2, 3)","(1, 2, 3, 1, 2, 3, 1, 2, 3)","(3, 3, 3, 2, 2, 2, 1, 1, 1)","(1, 2, 3, 1, 2, 3, 1, 2, 3)",223.33300000000003,34.074,111,223.33300000000003,34.074,111,389.259,0.0,333,223.33300000000003,34.074,111
45,78.0,P2-only,oct1803,21,"[2121, 3331, 1211]","[2232, 3112, 2313]","[1322, 1133, 3223]","(1, 2, 3, 2, 2, 3, 1, 1, 3)","(1, 1, 1, 2, 2, 3, 2, 3, 3)","(1, 2, 3, 1, 2, 3, 1, 2, 3)","(1, 2, 3, 1, 1, 3, 2, 2, 3)",21.481,32.222,122,357.778,68.519,223,223.33300000000003,34.074,111,25.185000000000002,35.926,122
46,80.0,P2-only,oct1803,22,"[3221, 1111, 2331]","[3132, 2212, 2123]","[3313, 1233, 1322]","(1, 2, 3, 2, 2, 3, 1, 1, 3)","(1, 1, 1, 2, 2, 3, 2, 3, 3)","(1, 2, 3, 1, 1, 2, 2, 3, 3)","(1, 2, 3, 1, 2, 3, 1, 2, 3)",21.481,32.222,122,357.778,68.519,223,26.665999999999997,37.407,122,223.33300000000003,34.074,111
47,78.0,P2-only,oct1803,23,"[1321, 3111, 2231]","[3332, 1212, 3223]","[2313, 1133, 2122]","(1, 2, 3, 1, 3, 3, 1, 2, 2)","(1, 1, 1, 2, 2, 3, 2, 3, 3)","(1, 2, 3, 2, 2, 3, 1, 1, 3)","(1, 2, 3, 1, 2, 3, 1, 2, 3)",21.852000000000004,32.593,122,357.778,68.519,223,21.481,32.222,122,223.33300000000003,34.074,111
48,90.0,P2-only,oct1803,24,"[2331, 3221, 1111]","[1232, 3312, 1323]","[2122, 2213, 3133]","(1, 2, 3, 1, 1, 3, 2, 2, 3)","(1, 1, 1, 2, 2, 3, 2, 3, 3)","(1, 2, 3, 2, 3, 3, 1, 1, 2)","(1, 2, 3, 1, 2, 3, 1, 2, 3)",25.185000000000002,35.926,122,357.778,68.519,223,20.0,30.741,122,223.33300000000003,34.074,111
49,89.0,P2-only,oct1803,25,"[1321, 2231, 3111]","[1132, 2312, 2123]","[3333, 3222, 1213]","(1, 2, 3, 1, 2, 2, 1, 3, 3)","(1, 1, 1, 2, 2, 3, 2, 3, 3)","(1, 2, 3, 1, 1, 3, 2, 2, 3)","(1, 2, 3, 1, 2, 3, 1, 2, 3)",24.814999999999998,35.556,122,357.778,68.519,223,25.185000000000002,35.926,122,223.33300000000003,34.074,111
50,96.0,P2-only,oct1803,26,"[3311, 1231, 2121]","[2332, 1112, 1323]","[2213, 3222, 3133]","(1, 2, 3, 1, 1, 2, 2, 3, 3)","(1, 1, 1, 2, 2, 3, 2, 3, 3)","(1, 2, 3, 1, 3, 3, 1, 2, 2)","(1, 2, 3, 1, 2, 3, 1, 2, 3)",26.665999999999997,37.407,122,357.778,68.519,223,21.852000000000004,32.593,122,223.33300000000003,34.074,111
51,84.0,P2-only,oct1803,27,"[1331, 2221, 3111]","[2312, 3323, 1122]","[2133, 1213, 3232]","(1, 2, 3, 1, 2, 3, 1, 2, 3)","(1, 1, 1, 2, 2, 3, 2, 3, 3)","(1, 2, 3, 1, 3, 3, 1, 2, 2)","(1, 2, 3, 1, 2, 2, 1, 3, 3)",223.33300000000003,34.074,111,357.778,68.519,223,21.852000000000004,32.593,122,24.814999999999998,35.556,122
52,95.0,P2-only,oct1803,28,"[1231, 2111, 3321]","[2332, 1313, 1122]","[3133, 2223, 3212]","(1, 2, 3, 1, 1, 2, 2, 3, 3)","(1, 1, 1, 2, 2, 3, 2, 3, 3)","(1, 2, 3, 1, 3, 3, 1, 2, 2)","(1, 2, 3, 1, 2, 3, 1, 2, 3)",26.665999999999997,37.407,122,357.778,68.519,223,21.852000000000004,32.593,122,223.33300000000003,34.074,111
53,79.0,P2-only,oct1803,29,"[1331, 2221, 3111]","[2132, 3322, 2313]","[3233, 1123, 1212]","(1, 2, 3, 2, 2, 3, 1, 1, 3)","(1, 1, 1, 2, 2, 3, 2, 3, 3)","(1, 2, 3, 1, 3, 3, 1, 2, 2)","(1, 2, 3, 1, 2, 3, 1, 2, 3)",21.481,32.222,122,357.778,68.519,223,21.852000000000004,32.593,122,223.33300000000003,34.074,111
54,89.0,P2-only,oct1803,30,"[3211, 1121, 2331]","[3322, 1232, 1313]","[3133, 2223, 2112]","(1, 2, 3, 1, 1, 3, 2, 2, 3)","(1, 1, 1, 2, 2, 3, 2, 3, 3)","(1, 2, 3, 2, 3, 3, 1, 1, 2)","(1, 2, 3, 1, 2, 3, 1, 2, 3)",25.185000000000002,35.926,122,357.778,68.519,223,20.0,30.741,122,223.33300000000003,34.074,111
55,91.0,P2-only,oct1803,31,"[1211, 2131, 3321]","[1332, 2313, 1123]","[2222, 3233, 3112]","(1, 2, 3, 1, 1, 2, 2, 3, 3)","(1, 1, 1, 2, 3, 3, 2, 2, 3)","(1, 2, 3, 1, 3, 3, 1, 2, 2)","(1, 2, 3, 1, 2, 3, 1, 2, 3)",26.665999999999997,37.407,122,356.29600000000005,67.037,223,21.852000000000004,32.593,122,223.33300000000003,34.074,111
56,63.0,P2-only,oct1803,32,"[1233, 3211, 2222]","[1312, 1121, 3323]","[2113, 3132, 2331]","(1, 2, 3, 1, 1, 3, 2, 2, 3)","(1, 2, 3, 1, 2, 3, 1, 2, 3)","(2, 2, 2, 1, 3, 3, 1, 1, 3)","(1, 2, 3, 1, 2, 2, 1, 3, 3)",25.185000000000002,35.926,122,223.33300000000003,34.074,111,319.259,30.0,223,24.814999999999998,35.556,122
57,94.0,P2-only,oct1803,33,"[2131, 1211, 3321]","[2312, 1122, 1333]","[3113, 2223, 3232]","(1, 2, 3, 1, 1, 2, 2, 3, 3)","(1, 1, 1, 2, 2, 3, 2, 3, 3)","(1, 2, 3, 1, 3, 3, 1, 2, 2)","(1, 2, 3, 1, 2, 3, 1, 2, 3)",26.665999999999997,37.407,122,357.778,68.519,223,21.852000000000004,32.593,122,223.33300000000003,34.074,111
58,80.0,P2-only,oct1803,34,"[2221, 3131, 1233]","[1311, 1122, 2332]","[2113, 3323, 3212]","(1, 2, 3, 1, 1, 2, 2, 3, 3)","(1, 1, 3, 1, 2, 2, 2, 3, 3)","(1, 2, 2, 1, 3, 3, 1, 2, 3)","(2, 3, 3, 1, 2, 3, 1, 1, 2)",26.665999999999997,37.407,122,137.778,48.519,222,32.222,42.963,122,0.0,10.741,122
59,87.0,P2-only,oct1803,35,"[1212, 2311, 3231]","[1121, 1333, 2132]","[3113, 3322, 2223]","(1, 2, 3, 1, 1, 2, 2, 3, 3)","(1, 1, 2, 1, 2, 3, 2, 3, 3)","(2, 2, 3, 1, 1, 3, 1, 2, 3)","(1, 1, 3, 2, 3, 3, 1, 2, 2)",26.665999999999997,37.407,122,46.666,57.407,122,12.222000000000001,22.963,122,132.963,43.704,222
60,71.0,P2-only,oct1803,36,"[2221, 3322, 3131]","[1232, 1123, 1311]","[2112, 2333, 3213]","(2, 3, 3, 1, 1, 1, 2, 2, 3)","(1, 1, 2, 1, 2, 3, 2, 3, 3)","(1, 2, 3, 1, 2, 3, 1, 2, 3)","(2, 2, 3, 1, 2, 3, 1, 1, 3)",305.185,15.926,223,46.666,57.407,122,223.33300000000003,34.074,111,10.370000000000001,21.111,122
61,76.0,P2-only,oct1803,37,"[3131, 1221, 2232]","[3322, 2311, 1333]","[1112, 2123, 3213]","(1, 2, 3, 1, 2, 3, 1, 2, 3)","(1, 1, 2, 1, 2, 3, 2, 3, 3)","(1, 2, 2, 3, 3, 3, 1, 1, 2)","(2, 3, 3, 1, 2, 3, 1, 1, 2)",223.33300000000003,34.074,111,46.666,57.407,122,328.889,39.63,223,0.0,10.741,122
62,64.0,P2-only,oct1803,38,"[3322, 2121, 1223]","[1311, 1132, 2333]","[2212, 3231, 3113]","(1, 2, 3, 1, 1, 2, 2, 3, 3)","(1, 2, 3, 1, 2, 3, 1, 2, 3)","(1, 2, 3, 1, 3, 3, 1, 2, 2)","(2, 2, 2, 1, 3, 3, 1, 1, 3)",26.665999999999997,37.407,122,223.33300000000003,34.074,111,21.852000000000004,32.593,122,319.259,30.0,223
63,39.0,P2-only,oct1803,39,"[2231, 3213, 3132]","[1333, 1111, 2123]","[1222, 3321, 2312]","(2, 3, 3, 1, 1, 2, 1, 2, 3)","(1, 2, 3, 1, 3, 3, 1, 2, 2)","(1, 2, 2, 1, 1, 3, 2, 3, 3)","(1, 3, 3, 1, 2, 3, 1, 2, 2)",3.333,14.074,122,21.852000000000004,32.593,122,135.555,46.296,222,12.963000000000001,23.704,122
64,63.0,P2-only,oct1803,40,"[2121, 1222, 3323]","[1311, 1133, 2332]","[2213, 3112, 3231]","(1, 2, 3, 1, 1, 2, 2, 3, 3)","(1, 2, 3, 1, 2, 3, 1, 2, 3)","(1, 2, 3, 1, 3, 3, 1, 2, 2)","(2, 2, 2, 1, 3, 3, 1, 1, 3)",26.665999999999997,37.407,122,223.33300000000003,34.074,111,21.852000000000004,32.593,122,319.259,30.0,223
65,96.0,P2-only,oct1803,41,"[1111, 2231, 3321]","[1332, 2122, 1223]","[2313, 3133, 3212]","(1, 2, 3, 1, 1, 2, 2, 3, 3)","(1, 1, 1, 2, 2, 3, 2, 3, 3)","(1, 2, 3, 1, 2, 3, 1, 2, 3)","(1, 2, 3, 2, 2, 3, 1, 1, 3)",26.665999999999997,37.407,122,357.778,68.519,223,223.33300000000003,34.074,111,21.481,32.222,122
66,94.0,P2-only,oct1803,42,"[1221, 3111, 2331]","[1312, 1133, 2122]","[3232, 3323, 2213]","(1, 2, 3, 1, 1, 2, 2, 3, 3)","(1, 1, 1, 2, 2, 3, 2, 3, 3)","(1, 2, 3, 1, 1, 3, 2, 2, 3)","(1, 2, 3, 1, 2, 3, 1, 2, 3)",26.665999999999997,37.407,122,357.778,68.519,223,25.185000000000002,35.926,122,223.33300000000003,34.074,111
67,73.0,P2-only,oct1803,43,"[3211, 2232, 2121]","[1331, 1112, 2313]","[3133, 1223, 3322]","(2, 2, 3, 1, 1, 2, 1, 3, 3)","(1, 1, 2, 1, 2, 3, 2, 3, 3)","(1, 2, 2, 1, 3, 3, 1, 2, 3)","(1, 2, 3, 1, 1, 3, 2, 2, 3)",113.703,24.444,222,46.666,57.407,122,32.222,42.963,122,25.185000000000002,35.926,122
68,88.0,P2-only,oct1803,44,"[1221, 2331, 3111]","[1132, 1313, 2123]","[2212, 3322, 3233]","(1, 2, 3, 1, 1, 2, 2, 3, 3)","(1, 1, 1, 2, 3, 3, 2, 2, 3)","(1, 2, 3, 1, 1, 3, 2, 2, 3)","(1, 2, 3, 1, 2, 3, 1, 2, 3)",26.665999999999997,37.407,122,356.29600000000005,67.037,223,25.185000000000002,35.926,122,223.33300000000003,34.074,111
69,95.0,P2-only,oct1803,45,"[1331, 2121, 3211]","[1113, 1222, 2312]","[3323, 2233, 3132]","(1, 2, 3, 1, 1, 2, 2, 3, 3)","(1, 1, 1, 2, 2, 3, 2, 3, 3)","(1, 2, 3, 1, 2, 3, 1, 2, 3)","(1, 2, 3, 1, 1, 2, 2, 3, 3)",26.665999999999997,37.407,122,357.778,68.519,223,223.33300000000003,34.074,111,26.665999999999997,37.407,122
70,78.0,P2-only,oct1803,46,"[1131, 3321, 2211]","[1313, 3112, 2123]","[1222, 2332, 3233]","(1, 2, 3, 1, 2, 3, 1, 2, 3)","(1, 1, 1, 2, 3, 3, 2, 2, 3)","(1, 2, 3, 1, 1, 3, 2, 2, 3)","(1, 2, 3, 1, 1, 2, 2, 3, 3)",223.33300000000003,34.074,111,356.29600000000005,67.037,223,25.185000000000002,35.926,122,26.665999999999997,37.407,122
71,95.0,P2-only,oct1803,47,"[3131, 2311, 1221]","[1113, 1332, 2122]","[3212, 2233, 3323]","(1, 2, 3, 1, 1, 2, 2, 3, 3)","(1, 1, 1, 2, 2, 3, 2, 3, 3)","(1, 2, 3, 1, 1, 3, 2, 2, 3)","(1, 2, 3, 1, 2, 3, 1, 2, 3)",26.665999999999997,37.407,122,357.778,68.519,223,25.185000000000002,35.926,122,223.33300000000003,34.074,111
72,91.0,P2-only,oct1803,48,"[3321, 2211, 1131]","[1312, 1223, 2333]","[3113, 3232, 2122]","(1, 2, 3, 1, 1, 2, 2, 3, 3)","(1, 1, 1, 2, 3, 3, 2, 2, 3)","(1, 2, 3, 2, 3, 3, 1, 1, 2)","(1, 2, 3, 1, 2, 3, 1, 2, 3)",26.665999999999997,37.407,122,356.29600000000005,67.037,223,20.0,30.741,122,223.33300000000003,34.074,111
73,86.0,P2-only,oct1803,49,"[1211, 3131, 2321]","[1123, 1332, 3313]","[2112, 3222, 2233]","(1, 2, 3, 1, 1, 3, 2, 2, 3)","(1, 1, 1, 2, 3, 3, 2, 2, 3)","(1, 2, 3, 1, 3, 3, 1, 2, 2)","(1, 2, 3, 1, 2, 3, 1, 2, 3)",25.185000000000002,35.926,122,356.29600000000005,67.037,223,21.852000000000004,32.593,122,223.33300000000003,34.074,111
74,87.0,P2-only,oct1803,50,"[1121, 3331, 2211]","[1312, 2132, 2323]","[3113, 3222, 1233]","(1, 2, 3, 1, 2, 2, 1, 3, 3)","(1, 1, 1, 2, 2, 3, 2, 3, 3)","(1, 2, 3, 1, 3, 3, 1, 2, 2)","(1, 2, 3, 1, 2, 3, 1, 2, 3)",24.814999999999998,35.556,122,357.778,68.519,223,21.852000000000004,32.593,122,223.33300000000003,34.074,111
75,36.0,P1,oct2201,1,"[332, 133, 231]","[212, 111, 313]","[223, 321, 122]","(1, 2, 3, 1, 2, 3, 1, 2, 3)","(3, 3, 3, 1, 1, 1, 2, 2, 2)","(1, 2, 3, 1, 2, 3, 1, 2, 3)",,223.33300000000003,34.074,111,394.815,5.556,333,223.33300000000003,34.074,111,,,
76,53.0,P1,oct2201,2,"[221, 212, 332]","[122, 323, 113]","[131, 311, 233]","(2, 2, 3, 1, 1, 3, 1, 2, 3)","(1, 2, 3, 1, 2, 2, 1, 3, 3)","(1, 2, 2, 2, 3, 3, 1, 1, 3)",,12.222000000000001,22.963,122,24.814999999999998,35.556,122,130.37,41.111,222,,,
77,88.0,P1,oct2201,3,"[211, 112, 313]","[223, 322, 121]","[133, 232, 331]","(1, 2, 3, 1, 2, 3, 1, 2, 3)","(1, 1, 1, 2, 2, 2, 3, 3, 3)","(1, 2, 3, 1, 2, 3, 1, 2, 3)",,223.33300000000003,34.074,111,459.259,70.0,333,223.33300000000003,34.074,111,,,
78,76.0,P1,oct2201,4,"[311, 213, 112]","[333, 131, 232]","[123, 221, 322]","(1, 2, 3, 1, 2, 3, 1, 2, 3)","(1, 1, 1, 3, 3, 3, 2, 2, 2)","(1, 2, 3, 1, 2, 3, 1, 2, 3)",,223.33300000000003,34.074,111,454.815,65.556,333,223.33300000000003,34.074,111,,,
79,69.0,P1,oct2201,5,"[312, 211, 323]","[121, 222, 113]","[331, 233, 132]","(2, 3, 3, 1, 1, 2, 1, 2, 3)","(1, 1, 2, 1, 2, 2, 3, 3, 3)","(1, 2, 3, 1, 2, 3, 1, 2, 3)",,3.333,14.074,122,348.148,58.889,223,223.33300000000003,34.074,111,,,
80,68.0,P1,oct2201,6,"[213, 312, 231]","[111, 222, 123]","[132, 333, 321]","(2, 2, 3, 1, 1, 2, 1, 3, 3)","(1, 1, 3, 1, 2, 2, 2, 3, 3)","(1, 2, 3, 1, 2, 3, 1, 2, 3)",,113.703,24.444,222,137.778,48.519,222,223.33300000000003,34.074,111,,,
81,78.0,P1,oct2201,7,"[213, 312, 111]","[232, 221, 323]","[331, 133, 122]","(1, 2, 3, 2, 2, 3, 1, 1, 3)","(1, 1, 1, 2, 2, 3, 2, 3, 3)","(1, 2, 3, 1, 2, 3, 1, 2, 3)",,21.481,32.222,122,357.778,68.519,223,223.33300000000003,34.074,111,,,
82,93.0,P1,oct2201,8,"[113, 211, 312]","[223, 122, 131]","[232, 321, 333]","(1, 2, 3, 1, 1, 2, 2, 3, 3)","(1, 1, 1, 2, 2, 3, 2, 3, 3)","(1, 2, 3, 1, 2, 3, 1, 2, 3)",,26.665999999999997,37.407,122,357.778,68.519,223,223.33300000000003,34.074,111,,,
83,73.0,P1,oct2201,9,"[311, 112, 213]","[231, 222, 332]","[121, 133, 323]","(1, 2, 3, 2, 2, 3, 1, 1, 3)","(1, 1, 1, 2, 3, 3, 2, 2, 3)","(1, 2, 3, 1, 2, 2, 1, 3, 3)",,21.481,32.222,122,356.29600000000005,67.037,223,24.814999999999998,35.556,122,,,
84,86.0,P1,oct2201,10,"[211, 313, 112]","[131, 123, 332]","[222, 233, 321]","(1, 2, 3, 1, 1, 3, 2, 2, 3)","(1, 1, 1, 2, 3, 3, 2, 2, 3)","(1, 2, 3, 1, 2, 3, 1, 2, 3)",,25.185000000000002,35.926,122,356.29600000000005,67.037,223,223.33300000000003,34.074,111,,,
85,89.0,P1,oct2201,11,"[311, 113, 212]","[231, 121, 223]","[322, 333, 132]","(1, 2, 3, 1, 2, 2, 1, 3, 3)","(1, 1, 1, 2, 2, 3, 2, 3, 3)","(1, 2, 3, 1, 1, 3, 2, 2, 3)",,24.814999999999998,35.556,122,357.778,68.519,223,25.185000000000002,35.926,122,,,
86,79.0,P1,oct2201,12,"[212, 111, 313]","[331, 123, 322]","[221, 132, 233]","(1, 2, 3, 1, 3, 3, 1, 2, 2)","(1, 1, 1, 2, 2, 3, 2, 3, 3)","(1, 2, 3, 1, 2, 3, 1, 2, 3)",,21.852000000000004,32.593,122,357.778,68.519,223,223.33300000000003,34.074,111,,,
87,76.0,P1,oct2201,13,"[212, 111, 313]","[231, 332, 223]","[321, 122, 133]","(1, 2, 3, 2, 2, 3, 1, 1, 3)","(1, 1, 1, 2, 3, 3, 2, 2, 3)","(1, 2, 3, 1, 2, 3, 1, 2, 3)",,21.481,32.222,122,356.29600000000005,67.037,223,223.33300000000003,34.074,111,,,
88,88.0,P1,oct2201,14,"[212, 113, 311]","[233, 221, 122]","[131, 323, 332]","(1, 2, 3, 1, 2, 2, 1, 3, 3)","(1, 1, 1, 2, 2, 3, 2, 3, 3)","(1, 2, 3, 1, 2, 3, 1, 2, 3)",,24.814999999999998,35.556,122,357.778,68.519,223,223.33300000000003,34.074,111,,,
89,76.0,P1,oct2201,15,"[211, 313, 112]","[133, 331, 232]","[223, 121, 322]","(1, 2, 3, 1, 2, 3, 1, 2, 3)","(1, 1, 1, 3, 3, 3, 2, 2, 2)","(1, 2, 3, 1, 2, 3, 1, 2, 3)",,223.33300000000003,34.074,111,454.815,65.556,333,223.33300000000003,34.074,111,,,
90,87.0,P1,oct2201,16,"[213, 311, 112]","[123, 221, 322]","[333, 232, 131]","(1, 2, 3, 1, 2, 3, 1, 2, 3)","(1, 1, 1, 2, 2, 2, 3, 3, 3)","(1, 2, 3, 1, 2, 3, 1, 2, 3)",,223.33300000000003,34.074,111,459.259,70.0,333,223.33300000000003,34.074,111,,,
91,74.0,P1,oct2201,17,"[113, 312, 211]","[323, 222, 331]","[121, 233, 132]","(1, 2, 3, 2, 3, 3, 1, 1, 2)","(1, 1, 1, 2, 2, 3, 2, 3, 3)","(1, 2, 3, 1, 2, 3, 1, 2, 3)",,20.0,30.741,122,357.778,68.519,223,223.33300000000003,34.074,111,,,
92,91.0,P1,oct2201,18,"[213, 312, 111]","[321, 123, 132]","[231, 222, 333]","(1, 2, 3, 1, 1, 3, 2, 2, 3)","(1, 1, 1, 2, 2, 3, 2, 3, 3)","(1, 2, 3, 1, 2, 3, 1, 2, 3)",,25.185000000000002,35.926,122,357.778,68.519,223,223.33300000000003,34.074,111,,,
93,69.0,P1,oct2201,19,"[312, 111, 213]","[232, 323, 331]","[133, 221, 122]","(1, 2, 3, 2, 3, 3, 1, 1, 2)","(1, 1, 1, 2, 3, 3, 2, 2, 3)","(1, 2, 3, 1, 2, 3, 1, 2, 3)",,20.0,30.741,122,356.29600000000005,67.037,223,223.33300000000003,34.074,111,,,
94,68.0,P1,oct2201,20,"[211, 113, 312]","[232, 321, 333]","[122, 131, 223]","(1, 2, 3, 2, 3, 3, 1, 1, 2)","(1, 1, 1, 2, 3, 3, 2, 2, 3)","(1, 2, 3, 1, 2, 3, 1, 2, 3)",,20.0,30.741,122,356.29600000000005,67.037,223,223.33300000000003,34.074,111,,,
95,73.0,P1,oct2201,21,"[231, 112, 213]","[222, 311, 323]","[133, 332, 121]","(1, 2, 2, 2, 3, 3, 1, 1, 3)","(1, 1, 3, 1, 2, 2, 2, 3, 3)","(1, 2, 3, 1, 2, 3, 1, 2, 3)",,130.37,41.111,222,137.778,48.519,222,223.33300000000003,34.074,111,,,
96,93.0,P1,oct2201,22,"[112, 313, 211]","[131, 222, 123]","[332, 321, 233]","(1, 2, 3, 1, 1, 2, 2, 3, 3)","(1, 1, 1, 2, 2, 3, 2, 3, 3)","(1, 2, 3, 1, 2, 3, 1, 2, 3)",,26.665999999999997,37.407,122,357.778,68.519,223,223.33300000000003,34.074,111,,,
97,65.0,P1,oct2201,23,"[231, 311, 113]","[223, 322, 212]","[333, 132, 121]","(1, 2, 3, 2, 2, 3, 1, 1, 3)","(1, 1, 3, 1, 2, 2, 2, 3, 3)","(1, 1, 3, 2, 2, 3, 1, 2, 3)",,21.481,32.222,122,137.778,48.519,222,34.444,45.185,122,,,
98,68.0,P1,oct2201,24,"[331, 212, 111]","[123, 322, 313]","[233, 221, 132]","(1, 2, 3, 1, 3, 3, 1, 2, 2)","(1, 1, 3, 1, 2, 2, 2, 3, 3)","(1, 1, 2, 2, 3, 3, 1, 2, 3)",,21.852000000000004,32.593,122,137.778,48.519,222,43.333,54.074,122,,,
99,71.0,P1,oct2201,25,"[231, 212, 313]","[111, 122, 223]","[133, 332, 321]","(2, 2, 3, 1, 1, 2, 1, 3, 3)","(1, 1, 3, 1, 2, 2, 2, 3, 3)","(1, 2, 3, 1, 2, 3, 1, 2, 3)",,113.703,24.444,222,137.778,48.519,222,223.33300000000003,34.074,111,,,
100,96.0,P1,oct2201,26,"[212, 113, 311]","[131, 221, 122]","[332, 233, 323]","(1, 2, 3, 1, 1, 2, 2, 3, 3)","(1, 1, 1, 2, 2, 3, 2, 3, 3)","(1, 2, 3, 1, 1, 2, 2, 3, 3)",,26.665999999999997,37.407,122,357.778,68.519,223,26.665999999999997,37.407,122,,,
101,80.0,P1,oct2201,27,"[211, 112, 313]","[331, 121, 322]","[133, 223, 232]","(1, 2, 3, 1, 3, 3, 1, 2, 2)","(1, 1, 1, 2, 2, 3, 2, 3, 3)","(1, 2, 3, 1, 1, 2, 2, 3, 3)",,21.852000000000004,32.593,122,357.778,68.519,223,26.665999999999997,37.407,122,,,
102,83.0,P1,oct2201,28,"[213, 311, 112]","[123, 322, 232]","[131, 221, 333]","(1, 2, 3, 1, 2, 3, 1, 2, 3)","(1, 1, 1, 2, 2, 3, 2, 3, 3)","(1, 2, 3, 2, 2, 3, 1, 1, 3)",,223.33300000000003,34.074,111,357.778,68.519,223,21.481,32.222,122,,,
103,86.0,P1,oct2201,29,"[113, 312, 211]","[323, 222, 132]","[121, 331, 233]","(1, 2, 3, 1, 2, 3, 1, 2, 3)","(1, 1, 1, 2, 2, 3, 2, 3, 3)","(1, 2, 3, 2, 2, 3, 1, 1, 3)",,223.33300000000003,34.074,111,357.778,68.519,223,21.481,32.222,122,,,
104,79.0,P1,oct2201,30,"[312, 111, 213]","[231, 321, 222]","[123, 132, 333]","(1, 2, 3, 2, 2, 3, 1, 1, 3)","(1, 1, 1, 2, 2, 3, 2, 3, 3)","(1, 2, 3, 1, 1, 2, 2, 3, 3)",,21.481,32.222,122,357.778,68.519,223,26.665999999999997,37.407,122,,,
105,75.0,P2,oct2201,1,"[2213, 3312, 1111]","[2132, 1333, 3231]","[3123, 1222, 2321]","(1, 1, 1, 3, 3, 3, 2, 2, 2)","(1, 2, 3, 1, 2, 3, 1, 2, 3)","(1, 2, 3, 1, 2, 3, 1, 2, 3)","(1, 2, 3, 1, 2, 3, 1, 2, 3)",454.815,65.556,333,223.33300000000003,34.074,111,223.33300000000003,34.074,111,223.33300000000003,34.074,111
106,38.0,P2,oct2201,2,"[2231, 1133, 3332]","[1311, 2112, 3213]","[1222, 3121, 2323]","(3, 3, 3, 1, 1, 1, 2, 2, 2)","(1, 2, 3, 1, 2, 3, 1, 2, 3)","(1, 2, 3, 1, 2, 3, 1, 2, 3)","(1, 2, 3, 1, 2, 3, 1, 2, 3)",394.815,5.556,333,223.33300000000003,34.074,111,223.33300000000003,34.074,111,223.33300000000003,34.074,111
107,90.0,P2,oct2201,3,"[2213, 1112, 3311]","[2322, 3123, 1221]","[2131, 1333, 3232]","(1, 1, 1, 2, 2, 2, 3, 3, 3)","(1, 2, 3, 1, 2, 3, 1, 2, 3)","(1, 2, 3, 1, 2, 3, 1, 2, 3)","(1, 2, 3, 1, 2, 3, 1, 2, 3)",459.259,70.0,333,223.33300000000003,34.074,111,223.33300000000003,34.074,111,223.33300000000003,34.074,111
108,56.0,P2,oct2201,4,"[2113, 2322, 2231]","[1132, 1223, 1311]","[3121, 3333, 3212]","(1, 2, 3, 1, 2, 3, 1, 2, 3)","(1, 2, 3, 1, 2, 3, 1, 2, 3)","(2, 2, 2, 1, 1, 1, 3, 3, 3)","(1, 2, 3, 1, 2, 3, 1, 2, 3)",223.33300000000003,34.074,111,223.33300000000003,34.074,111,425.92600000000004,36.667,333,223.33300000000003,34.074,111
109,57.0,P2,oct2201,5,"[2131, 2212, 2323]","[3233, 3122, 3311]","[1221, 1113, 1332]","(1, 2, 3, 1, 2, 3, 1, 2, 3)","(1, 2, 3, 1, 2, 3, 1, 2, 3)","(2, 2, 2, 3, 3, 3, 1, 1, 1)","(1, 2, 3, 1, 2, 3, 1, 2, 3)",223.33300000000003,34.074,111,223.33300000000003,34.074,111,415.92600000000004,26.667,333,223.33300000000003,34.074,111
110,54.0,P2,oct2201,6,"[1312, 1131, 1223]","[2321, 2232, 2113]","[3333, 3211, 3122]","(1, 2, 3, 1, 2, 3, 1, 2, 3)","(1, 2, 3, 1, 2, 3, 1, 2, 3)","(1, 1, 1, 2, 2, 2, 3, 3, 3)","(1, 2, 3, 1, 2, 3, 1, 2, 3)",223.33300000000003,34.074,111,223.33300000000003,34.074,111,459.259,70.0,333,223.33300000000003,34.074,111
111,55.0,P2,oct2201,7,"[3121, 3233, 3312]","[1222, 1113, 1331]","[2323, 2132, 2211]","(1, 2, 3, 1, 2, 3, 1, 2, 3)","(1, 2, 3, 1, 2, 3, 1, 2, 3)","(3, 3, 3, 1, 1, 1, 2, 2, 2)","(1, 2, 3, 1, 2, 3, 1, 2, 3)",223.33300000000003,34.074,111,223.33300000000003,34.074,111,394.815,5.556,333,223.33300000000003,34.074,111
112,54.0,P2,oct2201,8,"[2233, 1222, 3211]","[2321, 1313, 3332]","[1131, 3123, 2112]","(1, 2, 3, 1, 2, 3, 1, 2, 3)","(1, 2, 3, 1, 2, 3, 1, 2, 3)","(1, 2, 3, 1, 2, 3, 1, 2, 3)","(2, 2, 2, 3, 3, 3, 1, 1, 1)",223.33300000000003,34.074,111,223.33300000000003,34.074,111,223.33300000000003,34.074,111,415.92600000000004,26.667,333
113,54.0,P2,oct2201,9,"[1331, 2322, 3313]","[2211, 1223, 3232]","[3121, 1112, 2133]","(1, 2, 3, 1, 2, 3, 1, 2, 3)","(1, 2, 3, 1, 2, 3, 1, 2, 3)","(1, 2, 3, 1, 2, 3, 1, 2, 3)","(3, 3, 3, 2, 2, 2, 1, 1, 1)",223.33300000000003,34.074,111,223.33300000000003,34.074,111,223.33300000000003,34.074,111,389.259,0.0,333
114,54.0,P2,oct2201,10,"[1132, 3123, 2111]","[1313, 2322, 3331]","[2233, 3212, 1221]","(1, 2, 3, 1, 2, 3, 1, 2, 3)","(1, 2, 3, 1, 2, 3, 1, 2, 3)","(1, 2, 3, 1, 2, 3, 1, 2, 3)","(1, 1, 1, 3, 3, 3, 2, 2, 2)",223.33300000000003,34.074,111,223.33300000000003,34.074,111,223.33300000000003,34.074,111,454.815,65.556,333
115,74.0,P2,oct2201,11,"[3231, 2321, 1111]","[3313, 2133, 1223]","[1332, 3122, 2212]","(1, 2, 3, 1, 2, 3, 1, 2, 3)","(1, 1, 1, 3, 3, 3, 2, 2, 2)","(1, 2, 3, 1, 2, 3, 1, 2, 3)","(1, 2, 3, 1, 2, 3, 1, 2, 3)",223.33300000000003,34.074,111,454.815,65.556,333,223.33300000000003,34.074,111,223.33300000000003,34.074,111
116,40.0,P2,oct2201,12,"[3213, 1133, 2323]","[3331, 2111, 1221]","[2232, 3122, 1312]","(1, 2, 3, 1, 2, 3, 1, 2, 3)","(3, 3, 3, 1, 1, 1, 2, 2, 2)","(1, 2, 3, 1, 2, 3, 1, 2, 3)","(1, 2, 3, 1, 2, 3, 1, 2, 3)",223.33300000000003,34.074,111,394.815,5.556,333,223.33300000000003,34.074,111,223.33300000000003,34.074,111
117,91.0,P2,oct2201,13,"[2311, 3231, 1121]","[1332, 2222, 3112]","[3323, 1213, 2133]","(1, 2, 3, 1, 2, 3, 1, 2, 3)","(1, 1, 1, 2, 2, 2, 3, 3, 3)","(1, 2, 3, 1, 2, 3, 1, 2, 3)","(1, 2, 3, 1, 2, 3, 1, 2, 3)",223.33300000000003,34.074,111,459.259,70.0,333,223.33300000000003,34.074,111,223.33300000000003,34.074,111
118,94.0,P2,oct2201,14,"[2111, 3321, 1312]","[3132, 2222, 1231]","[2333, 3213, 1123]","(1, 1, 2, 2, 3, 3, 1, 2, 3)","(1, 1, 2, 1, 2, 2, 3, 3, 3)","(1, 2, 3, 1, 2, 3, 1, 2, 3)","(1, 3, 3, 1, 2, 2, 1, 2, 3)",43.333,54.074,122,348.148,58.889,223,223.33300000000003,34.074,111,14.443999999999999,25.185,122
119,91.0,P2,oct2201,15,"[2311, 3112, 1131]","[3221, 1322, 2232]","[2123, 1213, 3333]","(1, 1, 3, 2, 2, 3, 1, 2, 3)","(1, 1, 2, 1, 2, 2, 3, 3, 3)","(1, 2, 3, 1, 2, 3, 1, 2, 3)","(1, 1, 3, 2, 2, 3, 1, 2, 3)",34.444,45.185,122,348.148,58.889,223,223.33300000000003,34.074,111,34.444,45.185,122
120,63.0,P2,oct2201,16,"[2212, 3311, 3223]","[3132, 1322, 2333]","[1113, 2121, 1231]","(1, 1, 2, 2, 3, 3, 1, 2, 3)","(1, 2, 3, 2, 2, 3, 1, 1, 3)","(2, 3, 3, 1, 2, 3, 1, 1, 2)","(2, 2, 3, 1, 3, 3, 1, 1, 2)",43.333,54.074,122,21.481,32.222,122,0.0,10.741,122,108.889,19.63,222
121,95.0,P2,oct2201,17,"[2311, 3221, 1212]","[1131, 3332, 2122]","[1323, 3113, 2233]","(1, 1, 2, 2, 3, 3, 1, 2, 3)","(1, 1, 2, 1, 2, 2, 3, 3, 3)","(1, 2, 3, 1, 2, 3, 1, 2, 3)","(2, 2, 3, 1, 1, 3, 1, 2, 3)",43.333,54.074,122,348.148,58.889,223,223.33300000000003,34.074,111,12.222000000000001,22.963,122
122,100.0,P2,oct2201,18,"[2211, 1321, 3312]","[3131, 1113, 2122]","[1232, 3223, 2333]","(1, 1, 2, 1, 2, 3, 2, 3, 3)","(1, 1, 2, 1, 2, 3, 2, 3, 3)","(1, 2, 3, 1, 2, 3, 1, 2, 3)","(2, 3, 3, 1, 1, 1, 2, 2, 3)",46.666,57.407,122,46.666,57.407,122,223.33300000000003,34.074,111,305.185,15.926,223
123,38.0,P1,oct2202,1,"[212, 332, 122]","[223, 313, 133]","[111, 321, 231]","(1, 2, 3, 1, 2, 3, 1, 2, 3)","(2, 2, 2, 3, 3, 3, 1, 1, 1)","(1, 2, 3, 1, 2, 3, 1, 2, 3)",,223.33300000000003,34.074,111,415.92600000000004,26.667,333,223.33300000000003,34.074,111,,,
124,87.0,P1,oct2202,2,"[221, 131, 311]","[122, 212, 332]","[233, 113, 323]","(1, 2, 3, 1, 2, 3, 1, 2, 3)","(1, 1, 1, 2, 2, 2, 3, 3, 3)","(1, 2, 3, 1, 2, 3, 1, 2, 3)",,223.33300000000003,34.074,111,459.259,70.0,333,223.33300000000003,34.074,111,,,
125,91.0,P1,oct2202,3,"[211, 121, 331]","[112, 232, 322]","[133, 223, 313]","(1, 2, 3, 1, 2, 3, 1, 2, 3)","(1, 1, 1, 2, 2, 2, 3, 3, 3)","(1, 2, 3, 1, 2, 3, 1, 2, 3)",,223.33300000000003,34.074,111,459.259,70.0,333,223.33300000000003,34.074,111,,,
126,78.0,P1,oct2202,4,"[311, 131, 232]","[221, 322, 112]","[213, 333, 123]","(1, 3, 3, 1, 2, 2, 1, 2, 3)","(1, 1, 2, 1, 2, 2, 3, 3, 3)","(1, 2, 3, 1, 2, 3, 1, 2, 3)",,14.443999999999999,25.185,122,348.148,58.889,223,223.33300000000003,34.074,111,,,
127,70.0,P1,oct2202,5,"[121, 331, 132]","[211, 222, 312]","[233, 323, 113]","(2, 3, 3, 1, 1, 2, 1, 2, 3)","(1, 1, 2, 1, 2, 2, 3, 3, 3)","(1, 1, 3, 2, 2, 3, 1, 2, 3)",,3.333,14.074,122,348.148,58.889,223,34.444,45.185,122,,,
128,69.0,P1,oct2202,6,"[231, 321, 132]","[111, 312, 222]","[333, 213, 123]","(2, 3, 3, 1, 1, 2, 1, 2, 3)","(1, 1, 2, 1, 2, 2, 3, 3, 3)","(1, 2, 3, 1, 2, 3, 1, 2, 3)",,3.333,14.074,122,348.148,58.889,223,223.33300000000003,34.074,111,,,
129,81.0,P1,oct2202,7,"[111, 331, 221]","[232, 122, 323]","[213, 133, 312]","(1, 2, 3, 2, 2, 3, 1, 1, 3)","(1, 1, 1, 2, 2, 3, 2, 3, 3)","(1, 2, 3, 1, 2, 3, 1, 2, 3)",,21.481,32.222,122,357.778,68.519,223,223.33300000000003,34.074,111,,,
130,76.0,P1,oct2202,8,"[321, 131, 211]","[122, 232, 333]","[223, 113, 312]","(1, 2, 3, 2, 3, 3, 1, 1, 2)","(1, 1, 1, 2, 2, 3, 2, 3, 3)","(1, 2, 3, 1, 2, 3, 1, 2, 3)",,20.0,30.741,122,357.778,68.519,223,223.33300000000003,34.074,111,,,
131,79.0,P1,oct2202,9,"[311, 121, 231]","[112, 332, 133]","[222, 323, 213]","(1, 2, 3, 1, 3, 3, 1, 2, 2)","(1, 1, 1, 2, 2, 3, 2, 3, 3)","(1, 2, 3, 1, 1, 3, 2, 2, 3)",,21.852000000000004,32.593,122,357.778,68.519,223,25.185000000000002,35.926,122,,,
132,90.0,P1,oct2202,10,"[211, 321, 131]","[332, 112, 313]","[222, 233, 123]","(1, 2, 3, 1, 1, 3, 2, 2, 3)","(1, 1, 1, 2, 2, 3, 2, 3, 3)","(1, 2, 3, 1, 3, 3, 1, 2, 2)",,25.185000000000002,35.926,122,357.778,68.519,223,21.852000000000004,32.593,122,,,
133,56.0,P1,oct2202,11,"[333, 311, 322]","[132, 121, 113]","[231, 212, 223]","(1, 2, 3, 1, 2, 3, 1, 2, 3)","(1, 2, 3, 1, 2, 3, 1, 2, 3)","(3, 3, 3, 1, 1, 1, 2, 2, 2)",,223.33300000000003,34.074,111,223.33300000000003,34.074,111,394.815,5.556,333,,,
134,55.0,P1,oct2202,12,"[111, 132, 123]","[331, 313, 322]","[221, 212, 233]","(1, 2, 3, 1, 2, 3, 1, 2, 3)","(1, 2, 3, 1, 2, 3, 1, 2, 3)","(1, 1, 1, 3, 3, 3, 2, 2, 2)",,223.33300000000003,34.074,111,223.33300000000003,34.074,111,454.815,65.556,333,,,
135,73.0,P1,oct2202,13,"[321, 111, 122]","[332, 313, 133]","[231, 212, 223]","(1, 2, 2, 1, 3, 3, 1, 2, 3)","(1, 1, 2, 2, 3, 3, 1, 2, 3)","(1, 1, 3, 1, 3, 3, 2, 2, 2)",,32.222,42.963,122,43.333,54.074,122,334.815,45.556,223,,,
136,80.0,P1,oct2202,14,"[311, 131, 221]","[332, 323, 122]","[233, 212, 113]","(1, 2, 3, 2, 2, 3, 1, 1, 3)","(1, 1, 1, 2, 2, 3, 2, 3, 3)","(1, 2, 3, 1, 3, 3, 1, 2, 2)",,21.481,32.222,122,357.778,68.519,223,21.852000000000004,32.593,122,,,
137,85.0,P1,oct2202,15,"[211, 331, 121]","[112, 322, 133]","[313, 223, 232]","(1, 2, 3, 1, 2, 3, 1, 2, 3)","(1, 1, 1, 2, 2, 3, 2, 3, 3)","(1, 2, 3, 1, 1, 3, 2, 2, 3)",,223.33300000000003,34.074,111,357.778,68.519,223,25.185000000000002,35.926,122,,,
138,48.0,P1,oct2202,16,"[131, 221, 333]","[322, 232, 311]","[112, 213, 123]","(2, 3, 3, 1, 2, 3, 1, 1, 2)","(1, 1, 3, 1, 2, 2, 2, 3, 3)","(1, 2, 3, 2, 3, 3, 1, 1, 2)",,0.0,10.741,122,137.778,48.519,222,20.0,30.741,122,,,
139,71.0,P1,oct2202,17,"[121, 331, 132]","[211, 312, 222]","[233, 113, 323]","(2, 3, 3, 1, 1, 2, 1, 2, 3)","(1, 1, 2, 1, 2, 2, 3, 3, 3)","(1, 1, 3, 2, 2, 3, 1, 2, 3)",,3.333,14.074,122,348.148,58.889,223,34.444,45.185,122,,,
140,90.0,P1,oct2202,18,"[321, 111, 231]","[312, 222, 132]","[213, 123, 333]","(1, 2, 3, 1, 2, 3, 1, 2, 3)","(1, 1, 1, 2, 2, 2, 3, 3, 3)","(1, 2, 3, 1, 2, 3, 1, 2, 3)",,223.33300000000003,34.074,111,459.259,70.0,333,223.33300000000003,34.074,111,,,
141,75.0,P1,oct2202,19,"[331, 221, 111]","[133, 323, 213]","[312, 122, 232]","(1, 2, 3, 1, 2, 3, 1, 2, 3)","(1, 1, 1, 3, 3, 3, 2, 2, 2)","(1, 2, 3, 1, 2, 3, 1, 2, 3)",,223.33300000000003,34.074,111,454.815,65.556,333,223.33300000000003,34.074,111,,,
142,86.0,P1,oct2202,20,"[131, 321, 211]","[232, 223, 312]","[122, 113, 333]","(1, 2, 3, 1, 2, 3, 1, 2, 3)","(1, 1, 1, 2, 2, 3, 2, 3, 3)","(1, 2, 3, 2, 2, 3, 1, 1, 3)",,223.33300000000003,34.074,111,357.778,68.519,223,21.481,32.222,122,,,
143,68.0,P1,oct2202,21,"[231, 311, 121]","[332, 133, 323]","[222, 213, 112]","(1, 2, 3, 2, 3, 3, 1, 1, 2)","(1, 1, 1, 2, 3, 3, 2, 2, 3)","(1, 2, 3, 1, 3, 3, 1, 2, 2)",,20.0,30.741,122,356.29600000000005,67.037,223,21.852000000000004,32.593,122,,,
144,85.0,P1,oct2202,22,"[321, 131, 211]","[313, 222, 332]","[123, 233, 112]","(1, 2, 3, 1, 2, 3, 1, 2, 3)","(1, 1, 1, 2, 2, 3, 2, 3, 3)","(1, 2, 3, 2, 3, 3, 1, 1, 2)",,223.33300000000003,34.074,111,357.778,68.519,223,20.0,30.741,122,,,
145,83.0,P1,oct2202,23,"[311, 121, 231]","[223, 132, 212]","[333, 113, 322]","(1, 2, 3, 1, 2, 3, 1, 2, 3)","(1, 1, 1, 2, 2, 3, 2, 3, 3)","(1, 2, 3, 1, 2, 2, 1, 3, 3)",,223.33300000000003,34.074,111,357.778,68.519,223,24.814999999999998,35.556,122,,,
146,84.0,P1,oct2202,24,"[331, 111, 221]","[233, 212, 322]","[123, 313, 132]","(1, 2, 3, 1, 2, 3, 1, 2, 3)","(1, 1, 1, 2, 2, 3, 2, 3, 3)","(1, 2, 3, 2, 2, 3, 1, 1, 3)",,223.33300000000003,34.074,111,357.778,68.519,223,21.481,32.222,122,,,
147,85.0,P1,oct2202,25,"[111, 321, 231]","[133, 122, 212]","[313, 223, 332]","(1, 2, 3, 1, 2, 3, 1, 2, 3)","(1, 1, 1, 2, 2, 3, 2, 3, 3)","(1, 2, 3, 1, 1, 2, 2, 3, 3)",,223.33300000000003,34.074,111,357.778,68.519,223,26.665999999999997,37.407,122,,,
148,86.0,P1,oct2202,26,"[131, 311, 221]","[113, 332, 122]","[233, 323, 212]","(1, 2, 3, 1, 2, 3, 1, 2, 3)","(1, 1, 1, 2, 2, 3, 2, 3, 3)","(1, 2, 3, 1, 1, 3, 2, 2, 3)",,223.33300000000003,34.074,111,357.778,68.519,223,25.185000000000002,35.926,122,,,
149,80.0,P1,oct2202,27,"[331, 121, 211]","[223, 133, 112]","[232, 313, 322]","(1, 2, 3, 1, 2, 3, 1, 2, 3)","(1, 1, 1, 2, 3, 3, 2, 2, 3)","(1, 2, 3, 1, 1, 2, 2, 3, 3)",,223.33300000000003,34.074,111,356.29600000000005,67.037,223,26.665999999999997,37.407,122,,,
150,82.0,P1,oct2202,28,"[131, 221, 112]","[311, 232, 322]","[123, 213, 333]","(1, 2, 3, 1, 2, 3, 1, 2, 3)","(1, 1, 2, 1, 2, 2, 3, 3, 3)","(1, 1, 2, 2, 3, 3, 1, 2, 3)",,223.33300000000003,34.074,111,348.148,58.889,223,43.333,54.074,122,,,
151,90.0,P1,oct2202,29,"[312, 113, 211]","[222, 121, 323]","[132, 331, 233]","(1, 1, 1, 2, 2, 2, 3, 3, 3)","(1, 2, 3, 1, 2, 3, 1, 2, 3)","(1, 2, 3, 1, 2, 3, 1, 2, 3)",,459.259,70.0,333,223.33300000000003,34.074,111,223.33300000000003,34.074,111,,,
152,80.0,P1,oct2202,30,"[111, 312, 213]","[222, 123, 132]","[231, 321, 333]","(1, 1, 1, 2, 2, 3, 2, 3, 3)","(1, 2, 3, 2, 2, 3, 1, 1, 3)","(1, 2, 3, 1, 1, 2, 2, 3, 3)",,357.778,68.519,223,21.481,32.222,122,26.665999999999997,37.407,122,,,
153,21.0,P2,oct2202,1,"[2213, 3123, 1333]","[3312, 2132, 1222]","[1111, 3231, 2321]","(1, 2, 3, 1, 2, 3, 1, 2, 3)","(3, 3, 3, 2, 2, 2, 1, 1, 1)","(1, 2, 3, 1, 2, 3, 1, 2, 3)","(1, 2, 3, 1, 2, 3, 1, 2, 3)",223.33300000000003,34.074,111,389.259,0.0,333,223.33300000000003,34.074,111,223.33300000000003,34.074,111
154,75.0,P2,oct2202,2,"[2231, 1311, 3121]","[2323, 1133, 3213]","[1222, 2112, 3332]","(1, 2, 3, 1, 2, 3, 1, 2, 3)","(1, 1, 1, 3, 3, 3, 2, 2, 2)","(1, 2, 3, 1, 2, 3, 1, 2, 3)","(1, 2, 3, 1, 2, 3, 1, 2, 3)",223.33300000000003,34.074,111,454.815,65.556,333,223.33300000000003,34.074,111,223.33300000000003,34.074,111
155,87.0,P2,oct2202,3,"[2131, 3311, 1221]","[1112, 2322, 3232]","[1333, 2213, 3123]","(1, 2, 3, 1, 2, 3, 1, 2, 3)","(1, 1, 1, 2, 2, 2, 3, 3, 3)","(1, 2, 3, 1, 2, 3, 1, 2, 3)","(1, 2, 3, 1, 2, 3, 1, 2, 3)",223.33300000000003,34.074,111,459.259,70.0,333,223.33300000000003,34.074,111,223.33300000000003,34.074,111
156,92.0,P2,oct2202,4,"[3121, 1311, 2231]","[3212, 2113, 1132]","[3333, 1223, 2322]","(1, 2, 3, 1, 1, 2, 2, 3, 3)","(1, 1, 1, 2, 2, 3, 2, 3, 3)","(1, 2, 3, 1, 2, 3, 1, 2, 3)","(1, 2, 3, 1, 1, 3, 2, 2, 3)",26.665999999999997,37.407,122,357.778,68.519,223,223.33300000000003,34.074,111,25.185000000000002,35.926,122
157,74.0,P2,oct2202,5,"[2212, 3311, 1113]","[1221, 2131, 3122]","[2323, 3233, 1332]","(1, 2, 3, 1, 1, 2, 2, 3, 3)","(1, 2, 3, 1, 1, 2, 2, 3, 3)","(1, 2, 3, 1, 2, 3, 1, 2, 3)","(1, 1, 1, 2, 2, 3, 2, 3, 3)",26.665999999999997,37.407,122,26.665999999999997,37.407,122,223.33300000000003,34.074,111,357.778,68.519,223
158,55.0,P2,oct2202,6,"[2113, 1312, 3211]","[3333, 2232, 1131]","[1223, 3122, 2321]","(1, 2, 3, 1, 2, 3, 1, 2, 3)","(1, 2, 3, 1, 2, 3, 1, 2, 3)","(1, 2, 3, 1, 2, 3, 1, 2, 3)","(1, 1, 1, 3, 3, 3, 2, 2, 2)",223.33300000000003,34.074,111,223.33300000000003,34.074,111,223.33300000000003,34.074,111,454.815,65.556,333
159,70.0,P2,oct2202,7,"[2211, 3312, 1113]","[3121, 1331, 2132]","[2323, 3233, 1222]","(1, 2, 3, 1, 1, 3, 2, 2, 3)","(1, 2, 3, 1, 1, 2, 2, 3, 3)","(1, 2, 3, 1, 2, 3, 1, 2, 3)","(1, 1, 1, 2, 3, 3, 2, 2, 3)",25.185000000000002,35.926,122,26.665999999999997,37.407,122,223.33300000000003,34.074,111,356.29600000000005,67.037,223
160,56.0,P2,oct2202,8,"[3332, 1131, 2233]","[3211, 1313, 2112]","[2321, 3123, 1222]","(1, 2, 3, 1, 2, 3, 1, 2, 3)","(1, 2, 3, 1, 2, 3, 1, 2, 3)","(1, 2, 3, 1, 2, 3, 1, 2, 3)","(3, 3, 3, 1, 1, 1, 2, 2, 2)",223.33300000000003,34.074,111,223.33300000000003,34.074,111,223.33300000000003,34.074,111,394.815,5.556,333
161,57.0,P2,oct2202,9,"[2211, 3313, 1112]","[2322, 1223, 3121]","[1331, 3232, 2133]","(1, 2, 3, 1, 2, 3, 1, 2, 3)","(1, 2, 3, 1, 2, 3, 1, 2, 3)","(1, 2, 3, 1, 2, 3, 1, 2, 3)","(1, 1, 1, 2, 2, 2, 3, 3, 3)",223.33300000000003,34.074,111,223.33300000000003,34.074,111,223.33300000000003,34.074,111,459.259,70.0,333
162,54.0,P2,oct2202,10,"[2111, 3212, 1313]","[2322, 1221, 3123]","[3331, 2233, 1132]","(1, 2, 3, 1, 2, 3, 1, 2, 3)","(1, 2, 3, 1, 2, 3, 1, 2, 3)","(1, 2, 3, 1, 2, 3, 1, 2, 3)","(1, 1, 1, 2, 2, 2, 3, 3, 3)",223.33300000000003,34.074,111,223.33300000000003,34.074,111,223.33300000000003,34.074,111,459.259,70.0,333
163,56.0,P2,oct2202,11,"[2133, 1332, 3231]","[3313, 1111, 2212]","[2321, 1223, 3122]","(1, 2, 3, 1, 2, 3, 1, 2, 3)","(1, 2, 3, 1, 2, 3, 1, 2, 3)","(1, 2, 3, 1, 2, 3, 1, 2, 3)","(3, 3, 3, 1, 1, 1, 2, 2, 2)",223.33300000000003,34.074,111,223.33300000000003,34.074,111,223.33300000000003,34.074,111,394.815,5.556,333
164,53.0,P2,oct2202,12,"[2323, 3122, 1221]","[2111, 1312, 3213]","[2232, 3331, 1133]","(1, 2, 3, 1, 2, 3, 1, 2, 3)","(1, 2, 3, 1, 2, 3, 1, 2, 3)","(1, 2, 3, 1, 2, 3, 1, 2, 3)","(2, 2, 2, 1, 1, 1, 3, 3, 3)",223.33300000000003,34.074,111,223.33300000000003,34.074,111,223.33300000000003,34.074,111,425.92600000000004,36.667,333
165,54.0,P2,oct2202,13,"[3323, 2222, 1121]","[3112, 1213, 2311]","[3231, 2133, 1332]","(1, 2, 3, 1, 2, 3, 1, 2, 3)","(1, 2, 3, 1, 2, 3, 1, 2, 3)","(1, 2, 3, 1, 2, 3, 1, 2, 3)","(2, 2, 2, 1, 1, 1, 3, 3, 3)",223.33300000000003,34.074,111,223.33300000000003,34.074,111,223.33300000000003,34.074,111,425.92600000000004,36.667,333
166,21.0,P2,oct2202,14,"[2333, 1312, 3321]","[3213, 1231, 2222]","[3132, 2111, 1123]","(3, 3, 3, 2, 2, 2, 1, 1, 1)","(1, 2, 3, 1, 2, 3, 1, 2, 3)","(1, 2, 3, 1, 2, 3, 1, 2, 3)","(1, 2, 3, 1, 2, 3, 1, 2, 3)",389.259,0.0,333,223.33300000000003,34.074,111,223.33300000000003,34.074,111,223.33300000000003,34.074,111
167,87.0,P2,oct2202,15,"[3112, 2123, 1131]","[2232, 3221, 1213]","[1322, 3333, 2311]","(1, 1, 1, 2, 2, 2, 3, 3, 3)","(1, 2, 3, 1, 2, 3, 1, 2, 3)","(1, 2, 3, 1, 2, 3, 1, 2, 3)","(1, 2, 3, 1, 2, 3, 1, 2, 3)",459.259,70.0,333,223.33300000000003,34.074,111,223.33300000000003,34.074,111,223.33300000000003,34.074,111
168,77.0,P2,oct2202,16,"[3132, 1113, 2121]","[2333, 3311, 1322]","[3223, 2212, 1231]","(1, 1, 1, 3, 3, 3, 2, 2, 2)","(1, 2, 3, 1, 2, 3, 1, 2, 3)","(1, 2, 3, 1, 2, 3, 1, 2, 3)","(1, 2, 3, 1, 2, 3, 1, 2, 3)",454.815,65.556,333,223.33300000000003,34.074,111,223.33300000000003,34.074,111,223.33300000000003,34.074,111
169,54.0,P2,oct2202,17,"[1212, 1323, 1131]","[2233, 2311, 2122]","[3113, 3332, 3221]","(1, 2, 3, 1, 2, 3, 1, 2, 3)","(1, 2, 3, 1, 2, 3, 1, 2, 3)","(1, 1, 1, 2, 2, 2, 3, 3, 3)","(1, 2, 3, 1, 2, 3, 1, 2, 3)",223.33300000000003,34.074,111,223.33300000000003,34.074,111,459.259,70.0,333,223.33300000000003,34.074,111
170,55.0,P2,oct2202,18,"[3312, 3223, 3131]","[2122, 2211, 2333]","[1232, 1113, 1321]","(1, 2, 3, 1, 2, 3, 1, 2, 3)","(1, 2, 3, 1, 2, 3, 1, 2, 3)","(3, 3, 3, 2, 2, 2, 1, 1, 1)","(1, 2, 3, 1, 2, 3, 1, 2, 3)",223.33300000000003,34.074,111,223.33300000000003,34.074,111,389.259,0.0,333,223.33300000000003,34.074,111
171,55.0,P2,oct2202,19,"[3222, 3331, 3113]","[1132, 1211, 1323]","[2121, 2233, 2312]","(1, 2, 3, 1, 2, 3, 1, 2, 3)","(1, 2, 3, 1, 2, 3, 1, 2, 3)","(3, 3, 3, 1, 1, 1, 2, 2, 2)","(1, 2, 3, 1, 2, 3, 1, 2, 3)",223.33300000000003,34.074,111,223.33300000000003,34.074,111,394.815,5.556,333,223.33300000000003,34.074,111
172,54.0,P2,oct2202,20,"[2123, 2332, 2211]","[1233, 1321, 1112]","[3313, 3222, 3131]","(1, 2, 3, 1, 2, 3, 1, 2, 3)","(1, 2, 3, 1, 2, 3, 1, 2, 3)","(2, 2, 2, 1, 1, 1, 3, 3, 3)","(1, 2, 3, 1, 2, 3, 1, 2, 3)",223.33300000000003,34.074,111,223.33300000000003,34.074,111,425.92600000000004,36.667,333,223.33300000000003,34.074,111
173,95.0,P2,oct2202,21,"[2121, 1211, 3112]","[3223, 2232, 3331]","[1322, 2313, 1133]","(1, 1, 2, 2, 2, 3, 1, 3, 3)","(1, 1, 2, 1, 2, 3, 2, 3, 3)","(1, 2, 3, 2, 3, 3, 1, 1, 2)","(1, 1, 2, 2, 3, 3, 1, 2, 3)",144.815,55.556,222,46.666,57.407,122,20.0,30.741,122,43.333,54.074,122
174,87.0,P2,oct2202,22,"[3221, 1111, 2212]","[2331, 1322, 3132]","[3313, 1233, 2123]","(1, 2, 2, 1, 3, 3, 1, 2, 3)","(1, 1, 2, 1, 2, 2, 3, 3, 3)","(1, 2, 3, 1, 2, 3, 1, 2, 3)","(1, 1, 2, 2, 3, 3, 1, 2, 3)",32.222,42.963,122,348.148,58.889,223,223.33300000000003,34.074,111,43.333,54.074,122
175,95.0,P2,oct2202,23,"[3111, 2231, 1133]","[1321, 1212, 2122]","[2313, 3332, 3223]","(1, 1, 2, 1, 2, 3, 2, 3, 3)","(1, 1, 3, 1, 2, 2, 2, 3, 3)","(1, 2, 3, 1, 1, 2, 2, 3, 3)","(1, 3, 3, 1, 2, 2, 1, 2, 3)",46.666,57.407,122,137.778,48.519,222,26.665999999999997,37.407,122,14.443999999999999,25.185,122
176,89.0,P2,oct2202,24,"[1111, 2122, 3133]","[3221, 1232, 3312]","[2331, 2213, 1323]","(1, 1, 1, 2, 2, 3, 2, 3, 3)","(1, 2, 3, 1, 2, 2, 1, 3, 3)","(1, 2, 3, 1, 3, 3, 1, 2, 2)","(1, 2, 3, 1, 2, 3, 1, 2, 3)",357.778,68.519,223,24.814999999999998,35.556,122,21.852000000000004,32.593,122,223.33300000000003,34.074,111
177,95.0,P2,oct2202,25,"[3111, 1132, 2123]","[2231, 1321, 3222]","[2312, 3333, 1213]","(1, 1, 1, 2, 2, 3, 2, 3, 3)","(1, 2, 3, 1, 1, 2, 2, 3, 3)","(1, 2, 3, 1, 2, 3, 1, 2, 3)","(1, 2, 3, 2, 2, 3, 1, 1, 3)",357.778,68.519,223,26.665999999999997,37.407,122,223.33300000000003,34.074,111,21.481,32.222,122
178,89.0,P2,oct2202,26,"[2121, 1112, 3133]","[1231, 3311, 2332]","[2213, 3222, 1323]","(1, 1, 1, 2, 3, 3, 2, 2, 3)","(1, 2, 3, 1, 1, 2, 2, 3, 3)","(1, 2, 3, 1, 2, 3, 1, 2, 3)","(1, 2, 3, 1, 3, 3, 1, 2, 2)",356.29600000000005,67.037,223,26.665999999999997,37.407,122,223.33300000000003,34.074,111,21.852000000000004,32.593,122
179,74.0,P2,oct2202,27,"[3111, 1122, 2133]","[2312, 1331, 3323]","[2221, 1213, 3232]","(1, 1, 1, 3, 3, 3, 2, 2, 2)","(1, 2, 3, 1, 2, 3, 1, 2, 3)","(1, 2, 3, 1, 2, 3, 1, 2, 3)","(1, 2, 3, 1, 2, 3, 1, 2, 3)",454.815,65.556,333,223.33300000000003,34.074,111,223.33300000000003,34.074,111,223.33300000000003,34.074,111
180,95.0,P2,oct2202,28,"[2111, 1231, 1122]","[3212, 3133, 2223]","[1313, 2332, 3321]","(1, 1, 2, 1, 2, 2, 3, 3, 3)","(1, 1, 2, 2, 3, 3, 1, 2, 3)","(1, 1, 2, 2, 3, 3, 1, 2, 3)","(1, 2, 3, 1, 2, 3, 1, 2, 3)",348.148,58.889,223,43.333,54.074,122,43.333,54.074,122,223.33300000000003,34.074,111
181,94.0,P2,oct2202,29,"[3111, 2132, 2221]","[1123, 1212, 3233]","[1331, 3322, 2313]","(1, 1, 2, 1, 2, 2, 3, 3, 3)","(1, 1, 2, 2, 3, 3, 1, 2, 3)","(2, 2, 3, 1, 1, 3, 1, 2, 3)","(1, 2, 3, 1, 2, 3, 1, 2, 3)",348.148,58.889,223,43.333,54.074,122,12.222000000000001,22.963,122,223.33300000000003,34.074,111
182,90.0,P2,oct2202,30,"[3133, 1121, 3211]","[1232, 2112, 2223]","[2331, 1313, 3322]","(1, 1, 2, 1, 2, 2, 3, 3, 3)","(1, 1, 3, 2, 2, 3, 1, 2, 3)","(1, 3, 3, 1, 2, 2, 1, 2, 3)","(1, 2, 3, 1, 2, 3, 1, 2, 3)",348.148,58.889,223,34.444,45.185,122,14.443999999999999,25.185,122,223.33300000000003,34.074,111
183,14.0,P2,oct2202,31,"[2313, 3233, 1332]","[2222, 3321, 1211]","[1123, 3112, 2131]","(2, 3, 3, 2, 2, 3, 1, 1, 1)","(2, 3, 3, 1, 1, 2, 1, 2, 3)","(1, 2, 3, 1, 2, 3, 1, 2, 3)","(1, 3, 3, 1, 2, 2, 1, 2, 3)",298.148,8.889,223,3.333,14.074,122,223.33300000000003,34.074,111,14.443999999999999,25.185,122
184,89.0,P2,oct2202,32,"[1121, 3132, 2222]","[2113, 1312, 3211]","[1233, 3323, 2331]","(1, 1, 2, 1, 2, 3, 2, 3, 3)","(1, 2, 2, 1, 2, 3, 1, 3, 3)","(1, 2, 3, 1, 2, 3, 1, 2, 3)","(2, 2, 3, 1, 1, 1, 2, 3, 3)",46.666,57.407,122,33.703,44.444,122,223.33300000000003,34.074,111,315.555,26.296,223
185,53.0,P2,oct2202,33,"[1122, 3321, 2223]","[3113, 2312, 1211]","[2131, 1333, 3232]","(1, 2, 3, 1, 2, 3, 1, 2, 3)","(1, 2, 3, 1, 2, 3, 1, 2, 3)","(1, 2, 3, 1, 2, 3, 1, 2, 3)","(2, 2, 2, 1, 1, 1, 3, 3, 3)",223.33300000000003,34.074,111,223.33300000000003,34.074,111,223.33300000000003,34.074,111,425.92600000000004,36.667,333
186,88.0,P2,oct2202,34,"[3212, 1122, 3131]","[1311, 2221, 2332]","[1233, 2113, 3323]","(1, 1, 2, 2, 3, 3, 1, 2, 3)","(1, 2, 2, 1, 1, 2, 3, 3, 3)","(1, 3, 3, 1, 2, 2, 1, 2, 3)","(1, 2, 3, 1, 2, 3, 1, 2, 3)",43.333,54.074,122,337.03700000000003,47.778,223,14.443999999999999,25.185,122,223.33300000000003,34.074,111
187,95.0,P2,oct2202,35,"[1121, 2311, 2132]","[1212, 3231, 3113]","[3322, 1333, 2223]","(1, 1, 3, 1, 2, 2, 2, 3, 3)","(1, 1, 2, 1, 2, 3, 2, 3, 3)","(1, 2, 2, 1, 3, 3, 1, 2, 3)","(1, 2, 3, 1, 1, 3, 2, 2, 3)",137.778,48.519,222,46.666,57.407,122,32.222,42.963,122,25.185000000000002,35.926,122
188,89.0,P2,oct2202,36,"[1311, 1123, 3131]","[2112, 1232, 2221]","[3322, 2333, 3213]","(1, 1, 3, 1, 2, 2, 2, 3, 3)","(1, 1, 3, 1, 2, 2, 2, 3, 3)","(1, 1, 3, 1, 2, 2, 2, 3, 3)","(1, 2, 3, 1, 2, 3, 1, 2, 3)",137.778,48.519,222,137.778,48.519,222,137.778,48.519,222,223.33300000000003,34.074,111
189,75.0,P2,oct2202,37,"[1221, 2232, 2311]","[3322, 1112, 3131]","[1333, 2123, 3213]","(2, 2, 3, 1, 1, 3, 1, 2, 3)","(1, 1, 2, 1, 2, 2, 3, 3, 3)","(1, 2, 2, 1, 3, 3, 1, 2, 3)","(1, 2, 3, 1, 2, 3, 1, 2, 3)",12.222000000000001,22.963,122,348.148,58.889,223,32.222,42.963,122,223.33300000000003,34.074,111
190,80.0,P2,oct2202,38,"[2121, 1311, 3113]","[2333, 3231, 1132]","[1223, 2212, 3322]","(1, 1, 3, 1, 2, 3, 2, 2, 3)","(1, 1, 3, 1, 2, 3, 2, 2, 3)","(1, 2, 3, 1, 2, 3, 1, 2, 3)","(1, 1, 2, 3, 3, 3, 1, 2, 2)",36.296,47.037,122,36.296,47.037,122,223.33300000000003,34.074,111,341.85200000000003,52.593,223
191,90.0,P2,oct2202,39,"[3132, 1111, 2123]","[3213, 2231, 1222]","[1333, 3321, 2312]","(1, 1, 1, 2, 2, 2, 3, 3, 3)","(1, 2, 3, 1, 2, 3, 1, 2, 3)","(1, 2, 3, 1, 2, 3, 1, 2, 3)","(1, 2, 3, 1, 2, 3, 1, 2, 3)",459.259,70.0,333,223.33300000000003,34.074,111,223.33300000000003,34.074,111,223.33300000000003,34.074,111
192,88.0,P2,oct2202,40,"[2121, 1222, 1311]","[3231, 1133, 3112]","[2213, 3323, 2332]","(1, 2, 3, 1, 1, 2, 2, 3, 3)","(1, 1, 2, 1, 2, 3, 2, 3, 3)","(1, 1, 2, 1, 3, 3, 2, 2, 3)","(1, 2, 2, 1, 3, 3, 1, 2, 3)",26.665999999999997,37.407,122,46.666,57.407,122,145.185,55.926,222,32.222,42.963,122
193,89.0,P2,oct2202,41,"[3212, 2122, 1111]","[2231, 3321, 1332]","[1223, 2313, 3133]","(1, 1, 2, 2, 3, 3, 1, 2, 3)","(1, 2, 2, 1, 1, 2, 3, 3, 3)","(1, 2, 3, 1, 2, 3, 1, 2, 3)","(1, 1, 2, 2, 3, 3, 1, 2, 3)",43.333,54.074,122,337.03700000000003,47.778,223,223.33300000000003,34.074,111,43.333,54.074,122
194,88.0,P2,oct2202,42,"[3111, 1221, 3232]","[2122, 2213, 1133]","[1312, 3323, 2331]","(1, 2, 2, 1, 1, 2, 3, 3, 3)","(1, 1, 2, 2, 3, 3, 1, 2, 3)","(1, 3, 3, 1, 2, 2, 1, 2, 3)","(1, 2, 3, 1, 2, 3, 1, 2, 3)",337.03700000000003,47.778,223,43.333,54.074,122,14.443999999999999,25.185,122,223.33300000000003,34.074,111
195,100.0,P2,oct2202,43,"[2121, 3211, 1112]","[3133, 1331, 2232]","[1223, 2313, 3322]","(1, 1, 2, 1, 2, 3, 2, 3, 3)","(1, 1, 2, 1, 2, 3, 2, 3, 3)","(1, 2, 3, 1, 2, 3, 1, 2, 3)","(1, 1, 2, 3, 3, 3, 1, 2, 2)",46.666,57.407,122,46.666,57.407,122,223.33300000000003,34.074,111,341.85200000000003,52.593,223
196,72.0,P1,Oct2203,1,"[223, 212, 111]","[332, 231, 122]","[321, 313, 133]","(1, 1, 2, 2, 3, 3, 1, 2, 3)","(1, 2, 3, 1, 2, 2, 1, 3, 3)","(1, 2, 2, 1, 2, 3, 1, 3, 3)",,43.333,54.074,122,24.814999999999998,35.556,122,33.703,44.444,122,,,
197,71.0,P1,Oct2203,2,"[113, 212, 323]","[221, 131, 311]","[122, 233, 332]","(1, 1, 2, 1, 2, 3, 2, 3, 3)","(2, 3, 3, 1, 1, 1, 2, 2, 3)","(1, 2, 3, 1, 2, 3, 1, 2, 3)",,46.666,57.407,122,305.185,15.926,223,223.33300000000003,34.074,111,,,
198,77.0,P1,Oct2203,3,"[211, 112, 313]","[133, 232, 331]","[223, 121, 322]","(1, 1, 1, 3, 3, 3, 2, 2, 2)","(1, 2, 3, 1, 2, 3, 1, 2, 3)","(1, 2, 3, 1, 2, 3, 1, 2, 3)",,454.815,65.556,333,223.33300000000003,34.074,111,223.33300000000003,34.074,111,,,
199,75.0,P1,Oct2203,4,"[311, 131, 221]","[333, 123, 213]","[112, 232, 322]","(1, 2, 3, 1, 2, 3, 1, 2, 3)","(1, 1, 1, 3, 3, 3, 2, 2, 2)","(1, 2, 3, 1, 2, 3, 1, 2, 3)",,223.33300000000003,34.074,111,454.815,65.556,333,223.33300000000003,34.074,111,,,
200,20.0,P1,Oct2203,5,"[113, 323, 233]","[132, 222, 312]","[121, 331, 211]","(1, 2, 3, 1, 2, 3, 1, 2, 3)","(3, 3, 3, 2, 2, 2, 1, 1, 1)","(1, 2, 3, 1, 2, 3, 1, 2, 3)",,223.33300000000003,34.074,111,389.259,0.0,333,223.33300000000003,34.074,111,,,
201,58.0,P1,Oct2203,6,"[111, 333, 213]","[123, 231, 321]","[132, 312, 222]","(1, 1, 3, 2, 2, 3, 1, 2, 3)","(1, 3, 3, 1, 1, 3, 2, 2, 2)","(1, 2, 3, 1, 2, 3, 1, 2, 3)",,34.444,45.185,122,314.815,25.556,223,223.33300000000003,34.074,111,,,
202,82.0,P1,Oct2203,7,"[111, 323, 312]","[213, 122, 221]","[232, 331, 133]","(1, 1, 2, 1, 2, 2, 3, 3, 3)","(1, 2, 3, 1, 2, 3, 1, 2, 3)","(1, 3, 3, 1, 2, 2, 1, 2, 3)",,348.148,58.889,223,223.33300000000003,34.074,111,14.443999999999999,25.185,122,,,
203,56.0,P1,Oct2203,8,"[113, 122, 131]","[312, 333, 321]","[223, 232, 211]","(1, 2, 3, 1, 2, 3, 1, 2, 3)","(1, 2, 3, 1, 2, 3, 1, 2, 3)","(1, 1, 1, 3, 3, 3, 2, 2, 2)",,223.33300000000003,34.074,111,223.33300000000003,34.074,111,454.815,65.556,333,,,
204,55.0,P1,Oct2203,9,"[311, 332, 323]","[121, 133, 112]","[222, 231, 213]","(1, 2, 3, 1, 2, 3, 1, 2, 3)","(1, 2, 3, 1, 2, 3, 1, 2, 3)","(3, 3, 3, 1, 1, 1, 2, 2, 2)",,223.33300000000003,34.074,111,223.33300000000003,34.074,111,394.815,5.556,333,,,
205,54.0,P1,Oct2203,10,"[211, 222, 233]","[332, 321, 313]","[112, 123, 131]","(1, 2, 3, 1, 2, 3, 1, 2, 3)","(1, 2, 3, 1, 2, 3, 1, 2, 3)","(2, 2, 2, 3, 3, 3, 1, 1, 1)",,223.33300000000003,34.074,111,223.33300000000003,34.074,111,415.92600000000004,26.667,333,,,
206,68.0,P1,Oct2203,11,"[212, 322, 132]","[121, 231, 311]","[333, 113, 223]","(1, 2, 3, 1, 2, 3, 1, 2, 3)","(2, 2, 2, 1, 1, 1, 3, 3, 3)","(1, 2, 3, 1, 2, 3, 1, 2, 3)",,223.33300000000003,34.074,111,425.92600000000004,36.667,333,223.33300000000003,34.074,111,,,
207,68.0,P1,Oct2203,12,"[111, 132, 221]","[331, 233, 322]","[212, 313, 123]","(1, 2, 3, 2, 3, 3, 1, 1, 2)","(1, 1, 2, 1, 2, 3, 2, 3, 3)","(1, 1, 2, 2, 3, 3, 1, 2, 3)",,20.0,30.741,122,46.666,57.407,122,43.333,54.074,122,,,
208,88.0,P1,Oct2203,13,"[212, 313, 111]","[223, 321, 122]","[231, 332, 133]","(1, 1, 1, 2, 2, 2, 3, 3, 3)","(1, 2, 3, 1, 2, 3, 1, 2, 3)","(1, 2, 3, 1, 2, 3, 1, 2, 3)",,459.259,70.0,333,223.33300000000003,34.074,111,223.33300000000003,34.074,111,,,
209,74.0,P1,Oct2203,14,"[311, 113, 212]","[233, 332, 131]","[323, 221, 122]","(1, 1, 1, 3, 3, 3, 2, 2, 2)","(1, 2, 3, 1, 2, 3, 1, 2, 3)","(1, 2, 3, 1, 2, 3, 1, 2, 3)",,454.815,65.556,333,223.33300000000003,34.074,111,223.33300000000003,34.074,111,,,
210,89.0,P1,Oct2203,15,"[313, 211, 112]","[223, 322, 121]","[133, 331, 232]","(1, 1, 1, 2, 2, 2, 3, 3, 3)","(1, 2, 3, 1, 2, 3, 1, 2, 3)","(1, 2, 3, 1, 2, 3, 1, 2, 3)",,459.259,70.0,333,223.33300000000003,34.074,111,223.33300000000003,34.074,111,,,
211,79.0,P1,Oct2203,16,"[213, 311, 112]","[322, 232, 123]","[333, 131, 221]","(1, 1, 1, 2, 2, 3, 2, 3, 3)","(1, 2, 3, 2, 2, 3, 1, 1, 3)","(1, 2, 3, 1, 2, 3, 1, 2, 3)",,357.778,68.519,223,21.481,32.222,122,223.33300000000003,34.074,111,,,
212,83.0,P1,Oct2203,17,"[312, 121, 113]","[222, 323, 211]","[233, 132, 331]","(1, 1, 2, 1, 2, 2, 3, 3, 3)","(1, 2, 3, 1, 2, 3, 1, 2, 3)","(1, 1, 3, 2, 2, 3, 1, 2, 3)",,348.148,58.889,223,223.33300000000003,34.074,111,34.444,45.185,122,,,
213,82.0,P1,Oct2203,18,"[213, 111, 231]","[312, 321, 333]","[123, 222, 132]","(1, 1, 3, 1, 2, 3, 2, 2, 3)","(1, 1, 3, 1, 2, 3, 2, 2, 3)","(1, 2, 2, 3, 3, 3, 1, 1, 2)",,36.296,47.037,122,36.296,47.037,122,328.889,39.63,223,,,
214,77.0,P1,Oct2203,19,"[111, 221, 331]","[213, 323, 133]","[312, 122, 232]","(1, 2, 3, 1, 2, 3, 1, 2, 3)","(1, 1, 1, 3, 3, 3, 2, 2, 2)","(1, 2, 3, 1, 2, 3, 1, 2, 3)",,223.33300000000003,34.074,111,454.815,65.556,333,223.33300000000003,34.074,111,,,
215,76.0,P1,Oct2203,20,"[211, 122, 232]","[312, 131, 321]","[113, 333, 223]","(1, 2, 3, 1, 2, 3, 1, 2, 3)","(1, 2, 2, 1, 1, 2, 3, 3, 3)","(1, 2, 2, 1, 3, 3, 1, 2, 3)",,223.33300000000003,34.074,111,337.03700000000003,47.778,223,32.222,42.963,122,,,
216,51.0,P1,Oct2203,21,"[311, 133, 323]","[231, 222, 112]","[213, 332, 121]","(1, 2, 3, 1, 2, 3, 1, 2, 3)","(1, 3, 3, 1, 2, 2, 1, 2, 3)","(1, 3, 3, 1, 2, 2, 1, 2, 3)",,223.33300000000003,34.074,111,14.443999999999999,25.185,122,14.443999999999999,25.185,122,,,
217,76.0,P1,Oct2203,22,"[211, 332, 222]","[321, 112, 131]","[313, 123, 233]","(1, 2, 3, 1, 2, 3, 1, 2, 3)","(1, 2, 2, 1, 1, 2, 3, 3, 3)","(2, 2, 3, 1, 1, 3, 1, 2, 3)",,223.33300000000003,34.074,111,337.03700000000003,47.778,223,12.222000000000001,22.963,122,,,
218,61.0,P1,Oct2203,23,"[311, 322, 333]","[121, 212, 223]","[231, 113, 132]","(1, 2, 3, 1, 2, 2, 1, 3, 3)","(1, 2, 3, 1, 2, 3, 1, 2, 3)","(3, 3, 3, 1, 2, 2, 1, 1, 2)",,24.814999999999998,35.556,122,223.33300000000003,34.074,111,291.111,1.852,223,,,
219,55.0,P1,Oct2203,24,"[111, 132, 123]","[331, 313, 322]","[233, 212, 221]","(1, 2, 3, 1, 2, 3, 1, 2, 3)","(1, 2, 3, 1, 2, 3, 1, 2, 3)","(1, 1, 1, 3, 3, 3, 2, 2, 2)",,223.33300000000003,34.074,111,223.33300000000003,34.074,111,454.815,65.556,333,,,
220,53.0,P1,Oct2203,25,"[111, 223, 332]","[212, 321, 133]","[313, 231, 122]","(1, 2, 3, 1, 2, 3, 1, 2, 3)","(1, 2, 3, 1, 2, 3, 1, 2, 3)","(1, 2, 3, 1, 2, 3, 1, 2, 3)",,223.33300000000003,34.074,111,223.33300000000003,34.074,111,223.33300000000003,34.074,111,,,
221,82.0,P1,Oct2203,26,"[311, 212, 113]","[332, 221, 233]","[323, 122, 131]","(1, 1, 1, 2, 3, 3, 2, 2, 3)","(1, 2, 3, 1, 2, 3, 1, 2, 3)","(1, 2, 3, 2, 2, 3, 1, 1, 3)",,356.29600000000005,67.037,223,223.33300000000003,34.074,111,21.481,32.222,122,,,
222,85.0,P1,Oct2203,27,"[211, 112, 313]","[223, 322, 331]","[133, 232, 121]","(1, 1, 1, 2, 2, 3, 2, 3, 3)","(1, 2, 3, 1, 2, 3, 1, 2, 3)","(1, 2, 3, 2, 3, 3, 1, 1, 2)",,357.778,68.519,223,223.33300000000003,34.074,111,20.0,30.741,122,,,
223,86.0,P1,Oct2203,28,"[311, 112, 131]","[322, 213, 123]","[232, 221, 333]","(1, 1, 3, 1, 2, 2, 2, 3, 3)","(1, 1, 2, 2, 3, 3, 1, 2, 3)","(1, 1, 3, 1, 2, 3, 2, 2, 3)",,137.778,48.519,222,43.333,54.074,122,36.296,47.037,122,,,
224,62.0,P1,Oct2203,29,"[211, 331, 132]","[312, 233, 222]","[323, 113, 121]","(1, 3, 3, 1, 2, 3, 1, 2, 2)","(1, 1, 2, 2, 2, 3, 1, 3, 3)","(1, 2, 3, 2, 2, 3, 1, 1, 3)",,12.963000000000001,23.704,122,144.815,55.556,222,21.481,32.222,122,,,
225,72.0,P1,Oct2203,30,"[312, 111, 333]","[213, 231, 321]","[123, 222, 132]","(1, 1, 3, 1, 2, 3, 2, 2, 3)","(1, 2, 3, 1, 1, 3, 2, 2, 3)","(1, 3, 3, 2, 2, 3, 1, 1, 2)",,36.296,47.037,122,25.185000000000002,35.926,122,111.111,21.852,222,,,
226,77.0,P2,Oct2203,1,"[2213, 3312, 1111]","[2132, 1333, 3231]","[3123, 1222, 2321]","(1, 2, 3, 1, 2, 3, 1, 2, 3)","(1, 1, 1, 3, 3, 3, 2, 2, 2)","(1, 2, 3, 1, 2, 3, 1, 2, 3)","(1, 2, 3, 1, 2, 3, 1, 2, 3)",223.33300000000003,34.074,111,454.815,65.556,333,223.33300000000003,34.074,111,223.33300000000003,34.074,111
227,55.0,P2,Oct2203,2,"[2231, 1311, 3121]","[1222, 2112, 3332]","[2323, 1133, 3213]","(1, 2, 3, 1, 2, 3, 1, 2, 3)","(1, 2, 3, 1, 2, 3, 1, 2, 3)","(1, 2, 3, 1, 2, 3, 1, 2, 3)","(1, 1, 1, 2, 2, 2, 3, 3, 3)",223.33300000000003,34.074,111,223.33300000000003,34.074,111,223.33300000000003,34.074,111,459.259,70.0,333
228,56.0,P2,Oct2203,3,"[1112, 3232, 2322]","[3311, 2131, 1221]","[1333, 2213, 3123]","(1, 2, 3, 1, 2, 3, 1, 2, 3)","(1, 2, 3, 1, 2, 3, 1, 2, 3)","(1, 2, 3, 1, 2, 3, 1, 2, 3)","(2, 2, 2, 1, 1, 1, 3, 3, 3)",223.33300000000003,34.074,111,223.33300000000003,34.074,111,223.33300000000003,34.074,111,425.92600000000004,36.667,333
229,57.0,P2,Oct2203,4,"[3333, 1223, 2113]","[1311, 2231, 3121]","[1132, 2322, 3212]","(1, 2, 3, 1, 2, 3, 1, 2, 3)","(1, 2, 3, 1, 2, 3, 1, 2, 3)","(1, 2, 3, 1, 2, 3, 1, 2, 3)","(3, 3, 3, 1, 1, 1, 2, 2, 2)",223.33300000000003,34.074,111,223.33300000000003,34.074,111,223.33300000000003,34.074,111,394.815,5.556,333
230,53.0,P2,Oct2203,5,"[3311, 1332, 2323]","[2131, 3122, 1113]","[1221, 3233, 2212]","(1, 2, 3, 1, 2, 3, 1, 2, 3)","(1, 2, 3, 1, 2, 3, 1, 2, 3)","(3, 3, 3, 1, 1, 1, 2, 2, 2)","(1, 2, 3, 1, 2, 3, 1, 2, 3)",223.33300000000003,34.074,111,223.33300000000003,34.074,111,394.815,5.556,333,223.33300000000003,34.074,111
231,53.0,P2,Oct2203,6,"[1223, 2232, 3211]","[1312, 3333, 2321]","[2113, 1131, 3122]","(1, 2, 3, 1, 2, 3, 1, 2, 3)","(1, 2, 3, 1, 2, 3, 1, 2, 3)","(2, 2, 2, 3, 3, 3, 1, 1, 1)","(1, 2, 3, 1, 2, 3, 1, 2, 3)",223.33300000000003,34.074,111,223.33300000000003,34.074,111,415.92600000000004,26.667,333,223.33300000000003,34.074,111
232,39.0,P2,Oct2203,7,"[2323, 2132, 2211]","[3233, 3312, 3121]","[1113, 1331, 1222]","(2, 2, 2, 3, 3, 3, 1, 1, 1)","(1, 2, 3, 1, 2, 3, 1, 2, 3)","(1, 2, 3, 1, 2, 3, 1, 2, 3)","(1, 2, 3, 1, 2, 3, 1, 2, 3)",415.92600000000004,26.667,333,223.33300000000003,34.074,111,223.33300000000003,34.074,111,223.33300000000003,34.074,111
233,76.0,P2,Oct2203,8,"[1131, 1222, 1313]","[3332, 3123, 3211]","[2233, 2321, 2112]","(1, 1, 1, 3, 3, 3, 2, 2, 2)","(1, 2, 3, 1, 2, 3, 1, 2, 3)","(1, 2, 3, 1, 2, 3, 1, 2, 3)","(1, 2, 3, 1, 2, 3, 1, 2, 3)",454.815,65.556,333,223.33300000000003,34.074,111,223.33300000000003,34.074,111,223.33300000000003,34.074,111
234,90.0,P2,Oct2203,9,"[2211, 3313, 1112]","[1223, 1331, 2133]","[3121, 2322, 3232]","(1, 2, 3, 1, 1, 2, 2, 3, 3)","(1, 1, 1, 2, 3, 3, 2, 2, 3)","(1, 2, 3, 1, 2, 3, 1, 2, 3)","(1, 2, 3, 1, 3, 3, 1, 2, 2)",26.665999999999997,37.407,122,356.29600000000005,67.037,223,223.33300000000003,34.074,111,21.852000000000004,32.593,122
235,92.0,P2,Oct2203,10,"[2111, 3212, 1313]","[1221, 1132, 2233]","[3331, 2322, 3123]","(1, 2, 3, 1, 1, 2, 2, 3, 3)","(1, 1, 1, 2, 3, 3, 2, 2, 3)","(1, 2, 3, 1, 2, 2, 1, 3, 3)","(1, 2, 3, 1, 2, 3, 1, 2, 3)",26.665999999999997,37.407,122,356.29600000000005,67.037,223,24.814999999999998,35.556,122,223.33300000000003,34.074,111
236,100.0,P2,Oct2203,11,"[1111, 2212, 1223]","[2321, 1332, 3313]","[3231, 3122, 2133]","(1, 1, 2, 1, 2, 3, 2, 3, 3)","(1, 1, 2, 1, 2, 3, 2, 3, 3)","(1, 2, 2, 3, 3, 3, 1, 1, 2)","(1, 2, 3, 1, 2, 3, 1, 2, 3)",46.666,57.407,122,46.666,57.407,122,328.889,39.63,223,223.33300000000003,34.074,111
237,22.0,P1,Oct2204,1,"[223, 313, 133]","[332, 212, 122]","[111, 321, 231]","(1, 2, 3, 1, 2, 3, 1, 2, 3)","(3, 3, 3, 2, 2, 2, 1, 1, 1)","(1, 2, 3, 1, 2, 3, 1, 2, 3)",,223.33300000000003,34.074,111,389.259,0.0,333,223.33300000000003,34.074,111,,,
238,39.0,P1,Oct2204,2,"[122, 212, 332]","[233, 113, 323]","[221, 131, 311]","(1, 2, 3, 1, 2, 3, 1, 2, 3)","(2, 2, 2, 3, 3, 3, 1, 1, 1)","(1, 2, 3, 1, 2, 3, 1, 2, 3)",,223.33300000000003,34.074,111,415.92600000000004,26.667,333,223.33300000000003,34.074,111,,,
239,70.0,P1,Oct2204,3,"[322, 232, 112]","[211, 121, 331]","[133, 223, 313]","(1, 2, 3, 1, 2, 3, 1, 2, 3)","(2, 2, 2, 1, 1, 1, 3, 3, 3)","(1, 2, 3, 1, 2, 3, 1, 2, 3)",,223.33300000000003,34.074,111,425.92600000000004,36.667,333,223.33300000000003,34.074,111,,,
240,89.0,P1,Oct2204,4,"[311, 221, 131]","[322, 232, 112]","[213, 333, 123]","(1, 2, 3, 1, 2, 3, 1, 2, 3)","(1, 1, 1, 2, 2, 2, 3, 3, 3)","(1, 2, 3, 1, 2, 3, 1, 2, 3)",,223.33300000000003,34.074,111,459.259,70.0,333,223.33300000000003,34.074,111,,,
241,74.0,P1,Oct2204,5,"[312, 222, 121]","[331, 211, 132]","[233, 323, 113]","(1, 2, 3, 1, 2, 3, 1, 2, 3)","(1, 2, 2, 1, 1, 2, 3, 3, 3)","(1, 2, 2, 1, 3, 3, 1, 2, 3)",,223.33300000000003,34.074,111,337.03700000000003,47.778,223,32.222,42.963,122,,,
242,40.0,P1,Oct2204,6,"[312, 222, 132]","[333, 213, 123]","[111, 321, 231]","(1, 2, 3, 1, 2, 3, 1, 2, 3)","(2, 2, 2, 3, 3, 3, 1, 1, 1)","(1, 2, 3, 1, 2, 3, 1, 2, 3)",,223.33300000000003,34.074,111,415.92600000000004,26.667,333,223.33300000000003,34.074,111,,,
243,70.0,P1,Oct2204,7,"[312, 122, 331]","[111, 221, 232]","[323, 213, 133]","(1, 3, 3, 1, 2, 2, 1, 2, 3)","(1, 2, 2, 1, 1, 2, 3, 3, 3)","(1, 2, 3, 1, 2, 3, 1, 2, 3)",,14.443999999999999,25.185,122,337.03700000000003,47.778,223,223.33300000000003,34.074,111,,,
244,70.0,P1,Oct2204,8,"[122, 232, 312]","[211, 321, 131]","[223, 113, 333]","(1, 2, 3, 1, 2, 3, 1, 2, 3)","(2, 2, 2, 1, 1, 1, 3, 3, 3)","(1, 2, 3, 1, 2, 3, 1, 2, 3)",,223.33300000000003,34.074,111,425.92600000000004,36.667,333,223.33300000000003,34.074,111,,,
245,89.0,P1,Oct2204,9,"[121, 311, 231]","[332, 112, 222]","[133, 323, 213]","(1, 2, 3, 1, 2, 3, 1, 2, 3)","(1, 1, 1, 2, 2, 2, 3, 3, 3)","(1, 2, 3, 1, 2, 3, 1, 2, 3)",,223.33300000000003,34.074,111,459.259,70.0,333,223.33300000000003,34.074,111,,,
246,23.0,P1,Oct2204,10,"[332, 321, 313]","[222, 233, 211]","[112, 123, 131]","(3, 3, 3, 2, 2, 2, 1, 1, 1)","(1, 2, 3, 1, 2, 3, 1, 2, 3)","(1, 2, 3, 1, 2, 3, 1, 2, 3)",,389.259,0.0,333,223.33300000000003,34.074,111,223.33300000000003,34.074,111,,,
247,88.0,P1,Oct2204,11,"[121, 113, 132]","[212, 223, 231]","[322, 333, 311]","(1, 1, 1, 2, 2, 2, 3, 3, 3)","(1, 2, 3, 1, 2, 3, 1, 2, 3)","(1, 2, 3, 1, 2, 3, 1, 2, 3)",,459.259,70.0,333,223.33300000000003,34.074,111,223.33300000000003,34.074,111,,,
248,54.0,P1,Oct2204,12,"[111, 313, 212]","[221, 123, 322]","[331, 132, 233]","(1, 2, 3, 1, 2, 3, 1, 2, 3)","(1, 2, 3, 1, 2, 3, 1, 2, 3)","(1, 1, 1, 2, 2, 2, 3, 3, 3)",,223.33300000000003,34.074,111,223.33300000000003,34.074,111,459.259,70.0,333,,,
249,55.0,P1,Oct2204,13,"[332, 231, 133]","[321, 122, 223]","[313, 212, 111]","(1, 2, 3, 1, 2, 3, 1, 2, 3)","(1, 2, 3, 1, 2, 3, 1, 2, 3)","(3, 3, 3, 2, 2, 2, 1, 1, 1)",,223.33300000000003,34.074,111,223.33300000000003,34.074,111,389.259,0.0,333,,,
250,55.0,P1,Oct2204,14,"[323, 122, 221]","[311, 212, 113]","[233, 131, 332]","(1, 2, 3, 1, 2, 3, 1, 2, 3)","(1, 2, 3, 1, 2, 3, 1, 2, 3)","(2, 2, 2, 1, 1, 1, 3, 3, 3)",,223.33300000000003,34.074,111,223.33300000000003,34.074,111,425.92600000000004,36.667,333,,,
251,55.0,P1,Oct2204,15,"[313, 211, 112]","[223, 322, 121]","[133, 331, 232]","(1, 2, 3, 1, 2, 3, 1, 2, 3)","(1, 2, 3, 1, 2, 3, 1, 2, 3)","(1, 1, 1, 2, 2, 2, 3, 3, 3)",,223.33300000000003,34.074,111,223.33300000000003,34.074,111,459.259,70.0,333,,,
252,55.0,P1,Oct2204,16,"[221, 322, 123]","[232, 333, 131]","[112, 311, 213]","(1, 2, 3, 1, 2, 3, 1, 2, 3)","(1, 2, 3, 1, 2, 3, 1, 2, 3)","(2, 2, 2, 3, 3, 3, 1, 1, 1)",,223.33300000000003,34.074,111,223.33300000000003,34.074,111,415.92600000000004,26.667,333,,,
253,91.0,P1,Oct2204,17,"[121, 211, 132]","[113, 331, 323]","[233, 312, 222]","(1, 1, 2, 1, 3, 3, 2, 2, 3)","(1, 1, 2, 1, 3, 3, 2, 2, 3)","(1, 2, 3, 1, 2, 3, 1, 2, 3)",,145.185,55.926,222,145.185,55.926,222,223.33300000000003,34.074,111,,,
254,84.0,P1,Oct2204,18,"[111, 231, 123]","[321, 132, 333]","[213, 312, 222]","(1, 1, 2, 1, 3, 3, 2, 2, 3)","(1, 1, 3, 1, 2, 3, 2, 2, 3)","(1, 2, 3, 2, 3, 3, 1, 1, 2)",,145.185,55.926,222,36.296,47.037,122,20.0,30.741,122,,,
255,85.0,P1,Oct2204,19,"[111, 331, 122]","[221, 133, 323]","[213, 312, 232]","(1, 1, 3, 1, 2, 3, 2, 2, 3)","(1, 1, 2, 1, 3, 3, 2, 2, 3)","(1, 2, 3, 2, 2, 3, 1, 1, 3)",,36.296,47.037,122,145.185,55.926,222,21.481,32.222,122,,,
256,89.0,P1,Oct2204,20,"[131, 122, 321]","[211, 312, 232]","[113, 333, 223]","(1, 1, 3, 2, 2, 3, 1, 2, 3)","(1, 1, 2, 1, 2, 2, 3, 3, 3)","(2, 2, 3, 1, 1, 3, 1, 2, 3)",,34.444,45.185,122,348.148,58.889,223,12.222000000000001,22.963,122,,,
257,76.0,P1,Oct2204,21,"[311, 112, 121]","[133, 213, 323]","[222, 231, 332]","(1, 1, 3, 1, 2, 3, 2, 2, 3)","(1, 1, 2, 3, 3, 3, 1, 2, 2)","(1, 1, 2, 1, 2, 3, 2, 3, 3)",,36.296,47.037,122,341.85200000000003,52.593,223,46.666,57.407,122,,,
258,100.0,P1,Oct2204,22,"[131, 211, 112]","[321, 123, 222]","[332, 313, 233]","(1, 1, 2, 1, 2, 3, 2, 3, 3)","(1, 1, 2, 1, 2, 3, 2, 3, 3)","(1, 1, 3, 2, 2, 2, 1, 3, 3)",,46.666,57.407,122,46.666,57.407,122,335.92600000000004,46.667,223,,,
259,20.0,P2,Oct2204,1,"[2213, 3123, 1333]","[3312, 2132, 1222]","[1111, 3231, 2321]","(1, 2, 3, 1, 2, 3, 1, 2, 3)","(3, 3, 3, 2, 2, 2, 1, 1, 1)","(1, 2, 3, 1, 2, 3, 1, 2, 3)","(1, 2, 3, 1, 2, 3, 1, 2, 3)",223.33300000000003,34.074,111,389.259,0.0,333,223.33300000000003,34.074,111,223.33300000000003,34.074,111
260,38.0,P2,Oct2204,2,"[1222, 2112, 3332]","[3213, 1133, 2323]","[2231, 1311, 3121]","(1, 2, 3, 1, 2, 3, 1, 2, 3)","(2, 2, 2, 3, 3, 3, 1, 1, 1)","(1, 2, 3, 1, 2, 3, 1, 2, 3)","(1, 2, 3, 1, 2, 3, 1, 2, 3)",223.33300000000003,34.074,111,415.92600000000004,26.667,333,223.33300000000003,34.074,111,223.33300000000003,34.074,111
261,88.0,P2,Oct2204,3,"[3311, 2131, 1221]","[1112, 2322, 3232]","[1333, 2213, 3123]","(1, 2, 3, 1, 2, 3, 1, 2, 3)","(1, 1, 1, 2, 2, 2, 3, 3, 3)","(1, 2, 3, 1, 2, 3, 1, 2, 3)","(1, 2, 3, 1, 2, 3, 1, 2, 3)",223.33300000000003,34.074,111,459.259,70.0,333,223.33300000000003,34.074,111,223.33300000000003,34.074,111
262,75.0,P2,Oct2204,4,"[2113, 1311, 3212]","[3333, 2231, 1132]","[3121, 1223, 2322]","(1, 1, 1, 3, 3, 3, 2, 2, 2)","(1, 2, 3, 1, 2, 3, 1, 2, 3)","(1, 2, 3, 1, 2, 3, 1, 2, 3)","(1, 2, 3, 1, 2, 3, 1, 2, 3)",454.815,65.556,333,223.33300000000003,34.074,111,223.33300000000003,34.074,111,223.33300000000003,34.074,111
263,36.0,P2,Oct2204,5,"[2131, 1332, 3233]","[3311, 1113, 2212]","[1221, 3122, 2323]","(3, 3, 3, 1, 1, 1, 2, 2, 2)","(1, 2, 3, 1, 2, 3, 1, 2, 3)","(1, 2, 3, 1, 2, 3, 1, 2, 3)","(1, 2, 3, 1, 2, 3, 1, 2, 3)",394.815,5.556,333,223.33300000000003,34.074,111,223.33300000000003,34.074,111,223.33300000000003,34.074,111
264,89.0,P2,Oct2204,6,"[2113, 3211, 1312]","[1223, 2321, 3122]","[3333, 1131, 2232]","(1, 1, 1, 2, 2, 2, 3, 3, 3)","(1, 2, 3, 1, 2, 3, 1, 2, 3)","(1, 2, 3, 1, 2, 3, 1, 2, 3)","(1, 2, 3, 1, 2, 3, 1, 2, 3)",459.259,70.0,333,223.33300000000003,34.074,111,223.33300000000003,34.074,111,223.33300000000003,34.074,111
265,56.0,P2,Oct2204,7,"[2323, 2132, 2211]","[3121, 3233, 3312]","[1113, 1331, 1222]","(1, 2, 3, 1, 2, 3, 1, 2, 3)","(1, 2, 3, 1, 2, 3, 1, 2, 3)","(2, 2, 2, 3, 3, 3, 1, 1, 1)","(1, 2, 3, 1, 2, 3, 1, 2, 3)",223.33300000000003,34.074,111,223.33300000000003,34.074,111,415.92600000000004,26.667,333,223.33300000000003,34.074,111
266,53.0,P2,Oct2204,8,"[1131, 1222, 1313]","[3123, 3332, 3211]","[2233, 2321, 2112]","(1, 2, 3, 1, 2, 3, 1, 2, 3)","(1, 2, 3, 1, 2, 3, 1, 2, 3)","(1, 1, 1, 3, 3, 3, 2, 2, 2)","(1, 2, 3, 1, 2, 3, 1, 2, 3)",223.33300000000003,34.074,111,223.33300000000003,34.074,111,454.815,65.556,333,223.33300000000003,34.074,111
267,56.0,P2,Oct2204,9,"[3121, 3232, 3313]","[2322, 2211, 2133]","[1223, 1112, 1331]","(1, 2, 3, 1, 2, 3, 1, 2, 3)","(1, 2, 3, 1, 2, 3, 1, 2, 3)","(3, 3, 3, 2, 2, 2, 1, 1, 1)","(1, 2, 3, 1, 2, 3, 1, 2, 3)",223.33300000000003,34.074,111,223.33300000000003,34.074,111,389.259,0.0,333,223.33300000000003,34.074,111
268,54.0,P2,Oct2204,10,"[3331, 3212, 3123]","[1313, 1221, 1132]","[2111, 2233, 2322]","(1, 2, 3, 1, 2, 3, 1, 2, 3)","(1, 2, 3, 1, 2, 3, 1, 2, 3)","(3, 3, 3, 1, 1, 1, 2, 2, 2)","(1, 2, 3, 1, 2, 3, 1, 2, 3)",223.33300000000003,34.074,111,223.33300000000003,34.074,111,394.815,5.556,333,223.33300000000003,34.074,111
269,55.0,P2,Oct2204,11,"[2133, 2212, 2321]","[1223, 1111, 1332]","[3231, 3313, 3122]","(1, 2, 3, 1, 2, 3, 1, 2, 3)","(1, 2, 3, 1, 2, 3, 1, 2, 3)","(2, 2, 2, 1, 1, 1, 3, 3, 3)","(1, 2, 3, 1, 2, 3, 1, 2, 3)",223.33300000000003,34.074,111,223.33300000000003,34.074,111,425.92600000000004,36.667,333,223.33300000000003,34.074,111
270,55.0,P2,Oct2204,12,"[2111, 3122, 1133]","[2232, 1221, 3213]","[3331, 1312, 2323]","(1, 2, 3, 1, 2, 3, 1, 2, 3)","(1, 2, 3, 1, 2, 3, 1, 2, 3)","(1, 2, 3, 1, 2, 3, 1, 2, 3)","(1, 1, 1, 2, 2, 2, 3, 3, 3)",223.33300000000003,34.074,111,223.33300000000003,34.074,111,223.33300000000003,34.074,111,459.259,70.0,333
271,54.0,P2,Oct2204,13,"[3231, 1213, 2222]","[1121, 2133, 3112]","[2311, 3323, 1332]","(1, 2, 3, 1, 2, 3, 1, 2, 3)","(1, 2, 3, 1, 2, 3, 1, 2, 3)","(1, 2, 3, 1, 2, 3, 1, 2, 3)","(2, 2, 2, 1, 1, 1, 3, 3, 3)",223.33300000000003,34.074,111,223.33300000000003,34.074,111,223.33300000000003,34.074,111,425.92600000000004,36.667,333
272,57.0,P2,Oct2204,14,"[3321, 1312, 2333]","[3213, 1231, 2222]","[3132, 2111, 1123]","(1, 2, 3, 1, 2, 3, 1, 2, 3)","(1, 2, 3, 1, 2, 3, 1, 2, 3)","(1, 2, 3, 1, 2, 3, 1, 2, 3)","(3, 3, 3, 2, 2, 2, 1, 1, 1)",223.33300000000003,34.074,111,223.33300000000003,34.074,111,223.33300000000003,34.074,111,389.259,0.0,333
273,89.0,P2,Oct2204,15,"[3221, 2311, 1213]","[1131, 2123, 3112]","[1322, 2232, 3333]","(1, 1, 2, 1, 2, 3, 2, 3, 3)","(1, 1, 3, 1, 2, 3, 2, 2, 3)","(1, 2, 3, 1, 2, 3, 1, 2, 3)","(2, 2, 3, 1, 1, 1, 2, 3, 3)",46.666,57.407,122,36.296,47.037,122,223.33300000000003,34.074,111,315.555,26.296,223
274,84.0,P2,Oct2204,16,"[3311, 2121, 3223]","[1231, 2212, 1113]","[2333, 1322, 3132]","(1, 2, 2, 1, 1, 3, 2, 3, 3)","(1, 1, 3, 1, 2, 3, 2, 2, 3)","(2, 3, 3, 1, 1, 2, 1, 2, 3)","(1, 2, 3, 1, 2, 2, 1, 3, 3)",135.555,46.296,222,36.296,47.037,122,3.333,14.074,122,24.814999999999998,35.556,122
275,93.0,P2,Oct2204,17,"[2311, 3221, 3113]","[1131, 1212, 2122]","[1323, 3332, 2233]","(1, 1, 2, 1, 2, 3, 2, 3, 3)","(1, 1, 3, 1, 2, 2, 2, 3, 3)","(2, 3, 3, 1, 1, 2, 1, 2, 3)","(1, 2, 3, 1, 1, 2, 2, 3, 3)",46.666,57.407,122,137.778,48.519,222,3.333,14.074,122,26.665999999999997,37.407,122
276,88.0,P2,Oct2204,18,"[2211, 1321, 1113]","[3312, 3223, 2122]","[1232, 3131, 2333]","(1, 1, 2, 1, 2, 2, 3, 3, 3)","(1, 1, 3, 2, 2, 3, 1, 2, 3)","(1, 1, 2, 2, 3, 3, 1, 2, 3)","(1, 2, 3, 1, 2, 3, 1, 2, 3)",348.148,58.889,223,34.444,45.185,122,43.333,54.074,122,223.33300000000003,34.074,111
277,90.0,P2,Oct2204,19,"[1211, 2121, 3113]","[3331, 1323, 2312]","[1132, 3222, 2233]","(1, 1, 2, 1, 2, 3, 2, 3, 3)","(1, 1, 3, 1, 2, 3, 2, 2, 3)","(1, 2, 3, 1, 2, 3, 1, 2, 3)","(1, 1, 2, 3, 3, 3, 1, 2, 2)",46.666,57.407,122,36.296,47.037,122,223.33300000000003,34.074,111,341.85200000000003,52.593,223
278,85.0,P2,Oct2204,20,"[1321, 2211, 3313]","[3131, 2123, 3222]","[2332, 1233, 1112]","(1, 1, 2, 2, 2, 3, 1, 3, 3)","(1, 1, 3, 1, 2, 3, 2, 2, 3)","(1, 2, 3, 2, 3, 3, 1, 1, 2)","(2, 3, 3, 1, 1, 2, 1, 2, 3)",144.815,55.556,222,36.296,47.037,122,20.0,30.741,122,3.333,14.074,122
279,94.0,P2,Oct2204,21,"[2121, 1211, 2313]","[1322, 3112, 3331]","[2232, 1133, 3223]","(1, 1, 2, 1, 2, 3, 2, 3, 3)","(1, 1, 3, 1, 2, 2, 2, 3, 3)","(1, 2, 2, 1, 3, 3, 1, 2, 3)","(1, 2, 3, 1, 3, 3, 1, 2, 2)",46.666,57.407,122,137.778,48.519,222,32.222,42.963,122,21.852000000000004,32.593,122
280,85.0,P2,Oct2204,22,"[3221, 1111, 3313]","[1233, 2212, 2331]","[3132, 1322, 2123]","(1, 1, 2, 1, 3, 3, 2, 2, 3)","(1, 1, 3, 1, 2, 3, 2, 2, 3)","(1, 3, 3, 1, 2, 2, 1, 2, 3)","(1, 2, 3, 2, 2, 3, 1, 1, 3)",145.185,55.926,222,36.296,47.037,122,14.443999999999999,25.185,122,21.481,32.222,122
281,89.0,P2,Oct2204,23,"[3111, 1321, 2313]","[2231, 1212, 3332]","[1133, 2122, 3223]","(1, 1, 2, 1, 3, 3, 2, 2, 3)","(1, 1, 3, 1, 2, 2, 2, 3, 3)","(1, 2, 3, 1, 2, 3, 1, 2, 3)","(1, 3, 3, 2, 2, 3, 1, 1, 2)",145.185,55.926,222,137.778,48.519,222,223.33300000000003,34.074,111,111.111,21.852,222
282,85.0,P2,Oct2204,24,"[3221, 1111, 2213]","[2331, 2122, 1232]","[3312, 3133, 1323]","(1, 1, 2, 2, 3, 3, 1, 2, 3)","(1, 1, 3, 1, 2, 2, 2, 3, 3)","(1, 2, 3, 1, 2, 2, 1, 3, 3)","(1, 2, 2, 1, 2, 3, 1, 3, 3)",43.333,54.074,122,137.778,48.519,222,24.814999999999998,35.556,122,33.703,44.444,122
283,78.0,P2,Oct2204,25,"[1321, 2231, 1213]","[3111, 1132, 2312]","[2123, 3333, 3222]","(1, 2, 3, 1, 1, 3, 2, 2, 3)","(1, 1, 3, 1, 2, 2, 2, 3, 3)","(1, 1, 2, 1, 2, 3, 2, 3, 3)","(2, 2, 3, 1, 1, 3, 1, 2, 3)",25.185000000000002,35.926,122,137.778,48.519,222,46.666,57.407,122,12.222000000000001,22.963,122
284,90.0,P2,Oct2204,26,"[3311, 2121, 2213]","[1231, 1112, 1323]","[2332, 3222, 3133]","(1, 1, 2, 1, 2, 3, 2, 3, 3)","(1, 1, 3, 1, 2, 3, 2, 2, 3)","(2, 2, 3, 1, 1, 1, 2, 3, 3)","(1, 2, 3, 1, 2, 3, 1, 2, 3)",46.666,57.407,122,36.296,47.037,122,315.555,26.296,223,223.33300000000003,34.074,111
285,93.0,P2,Oct2204,27,"[2221, 3111, 1213]","[2312, 1122, 1331]","[2133, 3323, 3232]","(1, 1, 2, 1, 2, 3, 2, 3, 3)","(1, 1, 3, 1, 2, 2, 2, 3, 3)","(1, 2, 3, 1, 1, 2, 2, 3, 3)","(1, 2, 2, 1, 3, 3, 1, 2, 3)",46.666,57.407,122,137.778,48.519,222,26.665999999999997,37.407,122,32.222,42.963,122
286,80.0,P2,Oct2204,28,"[2111, 3321, 1313]","[1231, 1122, 3133]","[2332, 2223, 3212]","(1, 1, 2, 2, 3, 3, 1, 2, 3)","(1, 1, 3, 1, 2, 3, 2, 2, 3)","(1, 2, 3, 1, 1, 3, 2, 2, 3)","(1, 3, 3, 1, 1, 2, 2, 2, 3)",43.333,54.074,122,36.296,47.037,122,25.185000000000002,35.926,122,116.29599999999999,27.037,222
287,84.0,P2,Oct2204,29,"[2221, 3111, 2313]","[1331, 3322, 1123]","[3233, 2132, 1212]","(1, 1, 2, 2, 2, 3, 1, 3, 3)","(1, 1, 3, 1, 2, 3, 2, 2, 3)","(2, 2, 3, 1, 1, 3, 1, 2, 3)","(1, 2, 3, 1, 3, 3, 1, 2, 2)",144.815,55.556,222,36.296,47.037,122,12.222000000000001,22.963,122,21.852000000000004,32.593,122
288,76.0,P2,Oct2204,30,"[1121, 3211, 2223]","[2331, 1313, 3322]","[3133, 1232, 2112]","(1, 2, 2, 1, 2, 3, 1, 3, 3)","(1, 1, 3, 1, 2, 3, 2, 2, 3)","(1, 2, 3, 1, 2, 3, 1, 2, 3)","(1, 2, 2, 3, 3, 3, 1, 1, 2)",33.703,44.444,122,36.296,47.037,122,223.33300000000003,34.074,111,328.889,39.63,223
289,83.0,P2,Oct2204,31,"[1211, 3321, 1123]","[2131, 2222, 3112]","[3233, 2313, 1332]","(1, 2, 2, 1, 2, 3, 1, 3, 3)","(1, 1, 3, 1, 2, 2, 2, 3, 3)","(1, 1, 3, 2, 2, 3, 1, 2, 3)","(1, 2, 3, 1, 1, 2, 2, 3, 3)",33.703,44.444,122,137.778,48.519,222,34.444,45.185,122,26.665999999999997,37.407,122
290,95.0,P2,Oct2204,32,"[1121, 3211, 1312]","[2331, 3132, 2222]","[1233, 3323, 2113]","(1, 1, 2, 2, 3, 3, 1, 2, 3)","(1, 1, 2, 1, 2, 2, 3, 3, 3)","(1, 1, 3, 2, 2, 3, 1, 2, 3)","(1, 2, 3, 1, 2, 3, 1, 2, 3)",43.333,54.074,122,348.148,58.889,223,34.444,45.185,122,223.33300000000003,34.074,111
291,100.0,P2,Oct2204,33,"[3321, 1211, 2312]","[2131, 1122, 3113]","[2223, 1333, 3232]","(1, 1, 2, 1, 2, 3, 2, 3, 3)","(1, 1, 2, 1, 2, 3, 2, 3, 3)","(1, 2, 3, 1, 2, 3, 1, 2, 3)","(2, 3, 3, 1, 1, 1, 2, 2, 3)",46.666,57.407,122,46.666,57.407,122,223.33300000000003,34.074,111,305.185,15.926,223
292,20.0,P2-only,102302,1,"[3231, 3312, 3123]","[2321, 2132, 2213]","[1111, 1333, 1222]","(3, 3, 3, 2, 2, 2, 1, 1, 1)","(1, 2, 3, 1, 2, 3, 1, 2, 3)","(1, 2, 3, 1, 2, 3, 1, 2, 3)","(1, 2, 3, 1, 2, 3, 1, 2, 3)",389.259,0.0,333,223.33300000000003,34.074,111,223.33300000000003,34.074,111,223.33300000000003,34.074,111
293,76.0,P2-only,102302,2,"[1311, 3121, 2231]","[3213, 1133, 2323]","[1222, 2112, 3332]","(1, 2, 3, 1, 2, 3, 1, 2, 3)","(1, 1, 1, 3, 3, 3, 2, 2, 2)","(1, 2, 3, 1, 2, 3, 1, 2, 3)","(1, 2, 3, 1, 2, 3, 1, 2, 3)",223.33300000000003,34.074,111,454.815,65.556,333,223.33300000000003,34.074,111,223.33300000000003,34.074,111
294,76.0,P2-only,102302,3,"[2131, 1221, 3311]","[3123, 1333, 2213]","[1112, 3232, 2322]","(1, 2, 3, 1, 2, 3, 1, 2, 3)","(1, 1, 1, 3, 3, 3, 2, 2, 2)","(1, 2, 3, 1, 2, 3, 1, 2, 3)","(1, 2, 3, 1, 2, 3, 1, 2, 3)",223.33300000000003,34.074,111,454.815,65.556,333,223.33300000000003,34.074,111,223.33300000000003,34.074,111
295,53.0,P2-only,102302,4,"[2231, 3333, 1132]","[1311, 2113, 3212]","[3121, 1223, 2322]","(1, 2, 3, 1, 2, 3, 1, 2, 3)","(1, 2, 3, 1, 2, 3, 1, 2, 3)","(1, 2, 3, 1, 2, 3, 1, 2, 3)","(3, 3, 3, 1, 1, 1, 2, 2, 2)",223.33300000000003,34.074,111,223.33300000000003,34.074,111,223.33300000000003,34.074,111,394.815,5.556,333
296,54.0,P2-only,102302,5,"[1221, 3122, 2323]","[3311, 2212, 1113]","[2131, 3233, 1332]","(1, 2, 3, 1, 2, 3, 1, 2, 3)","(1, 2, 3, 1, 2, 3, 1, 2, 3)","(1, 2, 3, 1, 2, 3, 1, 2, 3)","(2, 2, 2, 1, 1, 1, 3, 3, 3)",223.33300000000003,34.074,111,223.33300000000003,34.074,111,223.33300000000003,34.074,111,425.92600000000004,36.667,333
297,55.0,P2-only,102302,6,"[3211, 2113, 1312]","[2321, 1223, 3122]","[3333, 1131, 2232]","(1, 2, 3, 1, 2, 3, 1, 2, 3)","(1, 2, 3, 1, 2, 3, 1, 2, 3)","(1, 2, 3, 1, 2, 3, 1, 2, 3)","(1, 1, 1, 2, 2, 2, 3, 3, 3)",223.33300000000003,34.074,111,223.33300000000003,34.074,111,223.33300000000003,34.074,111,459.259,70.0,333
298,39.0,P2-only,102302,7,"[3121, 3312, 3233]","[1113, 1331, 1222]","[2323, 2132, 2211]","(3, 3, 3, 1, 1, 1, 2, 2, 2)","(1, 2, 3, 1, 2, 3, 1, 2, 3)","(1, 2, 3, 1, 2, 3, 1, 2, 3)","(1, 2, 3, 1, 2, 3, 1, 2, 3)",394.815,5.556,333,223.33300000000003,34.074,111,223.33300000000003,34.074,111,223.33300000000003,34.074,111
299,56.0,P2-only,102302,8,"[1131, 3123, 2112]","[2233, 1222, 3211]","[2321, 1313, 3332]","(1, 2, 3, 1, 2, 3, 1, 2, 3)","(1, 2, 3, 1, 2, 3, 1, 2, 3)","(1, 1, 1, 2, 2, 2, 3, 3, 3)","(1, 2, 3, 1, 2, 3, 1, 2, 3)",223.33300000000003,34.074,111,223.33300000000003,34.074,111,459.259,70.0,333,223.33300000000003,34.074,111
300,20.0,P2-only,102302,9,"[3121, 3313, 3232]","[2211, 2133, 2322]","[1223, 1112, 1331]","(3, 3, 3, 2, 2, 2, 1, 1, 1)","(1, 2, 3, 1, 2, 3, 1, 2, 3)","(1, 2, 3, 1, 2, 3, 1, 2, 3)","(1, 2, 3, 1, 2, 3, 1, 2, 3)",389.259,0.0,333,223.33300000000003,34.074,111,223.33300000000003,34.074,111,223.33300000000003,34.074,111
301,84.0,P2-only,102302,10,"[2111, 1221, 2233]","[1132, 1313, 2322]","[3331, 3123, 3212]","(1, 2, 2, 1, 1, 2, 3, 3, 3)","(1, 1, 3, 2, 2, 3, 1, 2, 3)","(1, 2, 2, 1, 3, 3, 1, 2, 3)","(1, 2, 3, 1, 2, 3, 1, 2, 3)",337.03700000000003,47.778,223,34.444,45.185,122,32.222,42.963,122,223.33300000000003,34.074,111
302,96.0,P2-only,102302,11,"[2321, 1111, 1332]","[1223, 2133, 2212]","[3231, 3313, 3122]","(1, 1, 2, 1, 2, 2, 3, 3, 3)","(1, 1, 2, 2, 3, 3, 1, 2, 3)","(1, 3, 3, 1, 2, 2, 1, 2, 3)","(1, 2, 3, 1, 2, 3, 1, 2, 3)",348.148,58.889,223,43.333,54.074,122,14.443999999999999,25.185,122,223.33300000000003,34.074,111
303,93.0,P2-only,102302,12,"[2111, 1221, 1312]","[2323, 2232, 1133]","[3331, 3122, 3213]","(1, 1, 2, 1, 2, 2, 3, 3, 3)","(1, 1, 2, 2, 3, 3, 1, 2, 3)","(1, 2, 3, 1, 2, 3, 1, 2, 3)","(1, 1, 2, 2, 3, 3, 1, 2, 3)",348.148,58.889,223,43.333,54.074,122,223.33300000000003,34.074,111,43.333,54.074,122
304,82.0,P2-only,102302,13,"[2311, 1332, 2222]","[1213, 2133, 1121]","[3231, 3323, 3112]","(1, 2, 2, 1, 1, 2, 3, 3, 3)","(1, 2, 2, 1, 3, 3, 1, 2, 3)","(2, 3, 3, 1, 1, 2, 1, 2, 3)","(1, 2, 3, 1, 2, 3, 1, 2, 3)",337.03700000000003,47.778,223,32.222,42.963,122,3.333,14.074,122,223.33300000000003,34.074,111
305,89.0,P2-only,102302,14,"[1231, 2111, 2222]","[1123, 1312, 2333]","[3213, 3132, 3321]","(1, 2, 2, 1, 1, 2, 3, 3, 3)","(1, 1, 2, 2, 3, 3, 1, 2, 3)","(1, 2, 2, 1, 3, 3, 1, 2, 3)","(1, 2, 3, 1, 2, 3, 1, 2, 3)",337.03700000000003,47.778,223,43.333,54.074,122,32.222,42.963,122,223.33300000000003,34.074,111
306,89.0,P2-only,102302,15,"[2311, 1131, 2232]","[1322, 2123, 1213]","[3112, 3333, 3221]","(1, 2, 2, 1, 1, 2, 3, 3, 3)","(1, 1, 2, 2, 3, 3, 1, 2, 3)","(1, 2, 3, 1, 2, 3, 1, 2, 3)","(1, 3, 3, 1, 2, 2, 1, 2, 3)",337.03700000000003,47.778,223,43.333,54.074,122,223.33300000000003,34.074,111,14.443999999999999,25.185,122
307,95.0,P2-only,102302,16,"[1231, 2121, 1322]","[2333, 2212, 1113]","[3311, 3223, 3132]","(1, 1, 2, 1, 2, 2, 3, 3, 3)","(1, 1, 2, 2, 3, 3, 1, 2, 3)","(1, 2, 3, 1, 2, 3, 1, 2, 3)","(2, 2, 3, 1, 1, 3, 1, 2, 3)",348.148,58.889,223,43.333,54.074,122,223.33300000000003,34.074,111,12.222000000000001,22.963,122
308,74.0,P2-only,102302,17,"[2311, 1323, 2122]","[2233, 1131, 1212]","[3113, 3332, 3221]","(1, 2, 2, 1, 1, 2, 3, 3, 3)","(1, 2, 3, 1, 2, 3, 1, 2, 3)","(1, 3, 3, 1, 2, 2, 1, 2, 3)","(1, 2, 2, 1, 3, 3, 1, 2, 3)",337.03700000000003,47.778,223,223.33300000000003,34.074,111,14.443999999999999,25.185,122,32.222,42.963,122
309,87.0,P2-only,102302,18,"[1321, 2211, 2122]","[1113, 1232, 2333]","[3131, 3223, 3312]","(1, 2, 2, 1, 1, 2, 3, 3, 3)","(1, 1, 2, 2, 3, 3, 1, 2, 3)","(1, 2, 3, 1, 2, 3, 1, 2, 3)","(1, 2, 2, 1, 3, 3, 1, 2, 3)",337.03700000000003,47.778,223,43.333,54.074,122,223.33300000000003,34.074,111,32.222,42.963,122
310,94.0,P2-only,102302,19,"[2121, 1211, 1132]","[2312, 1323, 2233]","[3222, 3113, 3331]","(1, 1, 2, 1, 2, 2, 3, 3, 3)","(1, 1, 2, 2, 3, 3, 1, 2, 3)","(1, 1, 2, 2, 3, 3, 1, 2, 3)","(1, 2, 3, 1, 2, 3, 1, 2, 3)",348.148,58.889,223,43.333,54.074,122,43.333,54.074,122,223.33300000000003,34.074,111
311,78.0,P2-only,102302,20,"[1321, 2123, 3131]","[2211, 1112, 2332]","[1233, 3313, 3222]","(1, 2, 3, 1, 2, 2, 1, 3, 3)","(1, 1, 3, 1, 2, 2, 2, 3, 3)","(1, 1, 3, 1, 2, 3, 2, 2, 3)","(2, 2, 3, 1, 1, 3, 1, 2, 3)",24.814999999999998,35.556,122,137.778,48.519,222,36.296,47.037,122,12.222000000000001,22.963,122
312,93.0,P2-only,102302,21,"[2121, 1211, 1322]","[1133, 2313, 2232]","[3112, 3223, 3331]","(1, 1, 2, 1, 2, 2, 3, 3, 3)","(1, 1, 2, 2, 3, 3, 1, 2, 3)","(1, 2, 3, 1, 2, 3, 1, 2, 3)","(1, 2, 2, 1, 3, 3, 1, 2, 3)",348.148,58.889,223,43.333,54.074,122,223.33300000000003,34.074,111,32.222,42.963,122
313,83.0,P2-only,102302,22,"[1111, 2331, 2123]","[1233, 1322, 2212]","[3313, 3221, 3132]","(1, 2, 2, 1, 1, 2, 3, 3, 3)","(1, 1, 3, 2, 2, 3, 1, 2, 3)","(1, 1, 3, 2, 2, 3, 1, 2, 3)","(1, 2, 3, 1, 2, 3, 1, 2, 3)",337.03700000000003,47.778,223,34.444,45.185,122,34.444,45.185,122,223.33300000000003,34.074,111
314,89.0,P2-only,102302,23,"[1321, 2231, 2122]","[1133, 1212, 2313]","[3332, 3111, 3223]","(1, 2, 2, 1, 1, 2, 3, 3, 3)","(1, 1, 2, 2, 3, 3, 1, 2, 3)","(1, 2, 3, 1, 2, 3, 1, 2, 3)","(2, 2, 3, 1, 1, 3, 1, 2, 3)",337.03700000000003,47.778,223,43.333,54.074,122,223.33300000000003,34.074,111,12.222000000000001,22.963,122
315,78.0,P2-only,102302,24,"[2331, 1111, 3221]","[2122, 1323, 3133]","[3312, 1232, 2213]","(1, 2, 3, 1, 2, 3, 1, 2, 3)","(1, 1, 1, 2, 3, 3, 2, 2, 3)","(1, 2, 3, 1, 1, 3, 2, 2, 3)","(1, 2, 3, 2, 2, 3, 1, 1, 3)",223.33300000000003,34.074,111,356.29600000000005,67.037,223,25.185000000000002,35.926,122,21.481,32.222,122
316,80.0,P2-only,102302,25,"[2123, 2231, 1321]","[1213, 1132, 2312]","[3111, 3333, 3222]","(1, 2, 2, 1, 1, 2, 3, 3, 3)","(1, 1, 3, 2, 2, 3, 1, 2, 3)","(1, 2, 3, 1, 2, 3, 1, 2, 3)","(2, 2, 3, 1, 1, 3, 1, 2, 3)",337.03700000000003,47.778,223,34.444,45.185,122,223.33300000000003,34.074,111,12.222000000000001,22.963,122
317,94.0,P2-only,102302,26,"[2121, 1231, 1112]","[2332, 1323, 2213]","[3311, 3222, 3133]","(1, 1, 2, 1, 2, 2, 3, 3, 3)","(1, 1, 2, 2, 3, 3, 1, 2, 3)","(1, 1, 2, 2, 3, 3, 1, 2, 3)","(1, 2, 3, 1, 2, 3, 1, 2, 3)",348.148,58.889,223,43.333,54.074,122,43.333,54.074,122,223.33300000000003,34.074,111
318,84.0,P2-only,102302,27,"[2221, 1122, 3111]","[1331, 2133, 2312]","[1213, 3323, 3232]","(1, 2, 3, 1, 2, 2, 1, 3, 3)","(1, 1, 2, 1, 2, 3, 2, 3, 3)","(1, 1, 2, 1, 3, 3, 2, 2, 3)","(1, 2, 2, 1, 3, 3, 1, 2, 3)",24.814999999999998,35.556,122,46.666,57.407,122,145.185,55.926,222,32.222,42.963,122
319,95.0,P2-only,102302,28,"[2111, 1231, 1122]","[2223, 1313, 2332]","[3133, 3212, 3321]","(1, 1, 2, 1, 2, 2, 3, 3, 3)","(1, 1, 2, 2, 3, 3, 1, 2, 3)","(1, 1, 2, 2, 3, 3, 1, 2, 3)","(1, 2, 3, 1, 2, 3, 1, 2, 3)",348.148,58.889,223,43.333,54.074,122,43.333,54.074,122,223.33300000000003,34.074,111
320,88.0,P2-only,102302,29,"[1331, 2221, 2132]","[2313, 1123, 1212]","[3233, 3322, 3111]","(1, 2, 2, 1, 1, 2, 3, 3, 3)","(1, 1, 2, 2, 3, 3, 1, 2, 3)","(1, 2, 3, 1, 2, 3, 1, 2, 3)","(2, 3, 3, 1, 1, 2, 1, 2, 3)",337.03700000000003,47.778,223,43.333,54.074,122,223.33300000000003,34.074,111,3.333,14.074,122
321,82.0,P2-only,102302,30,"[2331, 1121, 2223]","[1232, 2112, 1313]","[3133, 3211, 3322]","(1, 2, 2, 1, 1, 2, 3, 3, 3)","(1, 1, 3, 2, 2, 3, 1, 2, 3)","(1, 2, 3, 1, 2, 3, 1, 2, 3)","(2, 2, 3, 1, 1, 3, 1, 2, 3)",337.03700000000003,47.778,223,34.444,45.185,122,223.33300000000003,34.074,111,12.222000000000001,22.963,122
322,87.0,P2-only,102302,31,"[2131, 1211, 1123]","[2313, 1332, 2222]","[3233, 3112, 3321]","(1, 1, 2, 1, 2, 2, 3, 3, 3)","(1, 1, 3, 2, 2, 3, 1, 2, 3)","(1, 1, 2, 2, 3, 3, 1, 2, 3)","(1, 2, 3, 1, 2, 3, 1, 2, 3)",348.148,58.889,223,34.444,45.185,122,43.333,54.074,122,223.33300000000003,34.074,111
323,83.0,P2-only,102302,32,"[1121, 2331, 2113]","[1233, 1312, 2222]","[3323, 3211, 3132]","(1, 2, 2, 1, 1, 2, 3, 3, 3)","(1, 1, 3, 2, 2, 3, 1, 2, 3)","(1, 1, 3, 2, 2, 3, 1, 2, 3)","(1, 2, 3, 1, 2, 3, 1, 2, 3)",337.03700000000003,47.778,223,34.444,45.185,122,34.444,45.185,122,223.33300000000003,34.074,111
324,93.0,P2-only,102302,33,"[2131, 1211, 1122]","[1333, 2312, 2223]","[3113, 3232, 3321]","(1, 1, 2, 1, 2, 2, 3, 3, 3)","(1, 1, 2, 2, 3, 3, 1, 2, 3)","(1, 1, 2, 2, 3, 3, 1, 2, 3)","(1, 2, 3, 1, 2, 3, 1, 2, 3)",348.148,58.889,223,43.333,54.074,122,43.333,54.074,122,223.33300000000003,34.074,111
325,94.0,P2-only,102302,34,"[2221, 1311, 1122]","[1233, 2332, 2113]","[3323, 3131, 3212]","(1, 1, 2, 1, 2, 2, 3, 3, 3)","(1, 1, 2, 2, 3, 3, 1, 2, 3)","(1, 2, 3, 1, 2, 3, 1, 2, 3)","(1, 2, 2, 1, 3, 3, 1, 2, 3)",348.148,58.889,223,43.333,54.074,122,223.33300000000003,34.074,111,32.222,42.963,122
326,76.0,P2-only,102302,35,"[1121, 2132, 2223]","[1333, 1212, 2311]","[3113, 3231, 3322]","(1, 2, 2, 1, 1, 2, 3, 3, 3)","(1, 2, 3, 1, 2, 3, 1, 2, 3)","(1, 1, 2, 2, 3, 3, 1, 2, 3)","(2, 2, 3, 1, 1, 3, 1, 2, 3)",337.03700000000003,47.778,223,223.33300000000003,34.074,111,43.333,54.074,122,12.222000000000001,22.963,122
327,90.0,P2-only,102302,36,"[2221, 1311, 1123]","[1232, 2112, 2333]","[3322, 3213, 3131]","(1, 1, 2, 1, 2, 2, 3, 3, 3)","(1, 1, 3, 2, 2, 3, 1, 2, 3)","(1, 2, 3, 1, 2, 3, 1, 2, 3)","(1, 2, 2, 1, 3, 3, 1, 2, 3)",348.148,58.889,223,34.444,45.185,122,223.33300000000003,34.074,111,32.222,42.963,122
328,89.0,P2-only,102302,37,"[3131, 1221, 2311]","[2123, 1112, 2232]","[3322, 1333, 3213]","(1, 2, 3, 1, 2, 2, 1, 3, 3)","(1, 1, 1, 2, 2, 3, 2, 3, 3)","(1, 2, 3, 1, 1, 2, 2, 3, 3)","(1, 2, 3, 1, 2, 3, 1, 2, 3)",24.814999999999998,35.556,122,357.778,68.519,223,26.665999999999997,37.407,122,223.33300000000003,34.074,111
329,89.0,P2-only,102302,38,"[2121, 1311, 3231]","[1223, 2333, 1132]","[2212, 3322, 3113]","(1, 2, 3, 1, 1, 2, 2, 3, 3)","(1, 1, 1, 2, 3, 3, 2, 2, 3)","(1, 2, 3, 1, 2, 3, 1, 2, 3)","(1, 2, 3, 2, 3, 3, 1, 1, 2)",26.665999999999997,37.407,122,356.29600000000005,67.037,223,223.33300000000003,34.074,111,20.0,30.741,122
330,71.0,P2-only,102302,39,"[1111, 3321, 2123]","[1222, 3132, 2231]","[1333, 3213, 2312]","(1, 2, 3, 1, 2, 3, 1, 2, 3)","(1, 1, 3, 1, 2, 2, 2, 3, 3)","(1, 1, 3, 1, 2, 2, 2, 3, 3)","(1, 2, 2, 2, 3, 3, 1, 1, 3)",223.33300000000003,34.074,111,137.778,48.519,222,137.778,48.519,222,130.37,41.111,222
331,94.0,P2-only,102302,40,"[2121, 1311, 1222]","[2332, 2213, 1133]","[3323, 3112, 3231]","(1, 1, 2, 1, 2, 2, 3, 3, 3)","(1, 1, 2, 2, 3, 3, 1, 2, 3)","(1, 2, 3, 1, 2, 3, 1, 2, 3)","(1, 2, 2, 1, 3, 3, 1, 2, 3)",348.148,58.889,223,43.333,54.074,122,223.33300000000003,34.074,111,32.222,42.963,122
332,86.0,P2-only,102302,41,"[1111, 3321, 2122]","[1223, 1332, 2231]","[2313, 3133, 3212]","(1, 2, 3, 1, 1, 2, 2, 3, 3)","(1, 1, 2, 1, 2, 3, 2, 3, 3)","(1, 1, 3, 2, 2, 3, 1, 2, 3)","(1, 2, 2, 2, 3, 3, 1, 1, 3)",26.665999999999997,37.407,122,46.666,57.407,122,34.444,45.185,122,130.37,41.111,222
333,88.0,P2-only,102302,42,"[1221, 2331, 2122]","[1312, 1133, 2213]","[3232, 3111, 3323]","(1, 2, 2, 1, 1, 2, 3, 3, 3)","(1, 1, 2, 2, 3, 3, 1, 2, 3)","(1, 2, 3, 1, 2, 3, 1, 2, 3)","(2, 2, 3, 1, 1, 3, 1, 2, 3)",337.03700000000003,47.778,223,43.333,54.074,122,223.33300000000003,34.074,111,12.222000000000001,22.963,122
334,90.0,P2-only,102302,43,"[2121, 1331, 3211]","[1112, 1223, 3322]","[3133, 2232, 2313]","(1, 2, 3, 1, 1, 3, 2, 2, 3)","(1, 1, 1, 2, 2, 3, 2, 3, 3)","(1, 2, 3, 1, 2, 3, 1, 2, 3)","(1, 2, 3, 1, 2, 2, 1, 3, 3)",25.185000000000002,35.926,122,357.778,68.519,223,223.33300000000003,34.074,111,24.814999999999998,35.556,122
335,72.0,P2-only,102302,44,"[1221, 3111, 2123]","[2331, 1132, 3322]","[2212, 1313, 3233]","(1, 2, 3, 1, 2, 3, 1, 2, 3)","(1, 1, 3, 1, 2, 2, 2, 3, 3)","(1, 1, 2, 1, 3, 3, 2, 2, 3)","(1, 2, 2, 2, 3, 3, 1, 1, 3)",223.33300000000003,34.074,111,137.778,48.519,222,145.185,55.926,222,130.37,41.111,222
336,87.0,P2-only,102302,45,"[2121, 1331, 1113]","[1222, 2312, 2233]","[3323, 3132, 3211]","(1, 1, 2, 1, 2, 2, 3, 3, 3)","(1, 1, 3, 2, 2, 3, 1, 2, 3)","(1, 1, 3, 2, 2, 3, 1, 2, 3)","(1, 2, 3, 1, 2, 3, 1, 2, 3)",348.148,58.889,223,34.444,45.185,122,34.444,45.185,122,223.33300000000003,34.074,111
337,79.0,P2-only,102302,46,"[1131, 2211, 2123]","[3112, 1222, 3321]","[2332, 3233, 1313]","(1, 2, 2, 1, 3, 3, 1, 2, 3)","(1, 1, 3, 1, 2, 2, 2, 3, 3)","(1, 1, 2, 1, 2, 3, 2, 3, 3)","(1, 2, 3, 1, 2, 2, 1, 3, 3)",32.222,42.963,122,137.778,48.519,222,46.666,57.407,122,24.814999999999998,35.556,122
338,93.0,P2-only,102302,47,"[1221, 3131, 2311]","[1113, 1332, 2122]","[3212, 2233, 3323]","(1, 2, 3, 1, 1, 2, 2, 3, 3)","(1, 1, 1, 2, 2, 3, 2, 3, 3)","(1, 2, 3, 1, 1, 3, 2, 2, 3)","(1, 2, 3, 1, 2, 3, 1, 2, 3)",26.665999999999997,37.407,122,357.778,68.519,223,25.185000000000002,35.926,122,223.33300000000003,34.074,111
339,77.0,P2-only,102302,48,"[2211, 1131, 2122]","[1223, 3113, 3321]","[3232, 1312, 2333]","(1, 2, 2, 1, 3, 3, 1, 2, 3)","(1, 1, 2, 1, 3, 3, 2, 2, 3)","(1, 1, 2, 1, 2, 3, 2, 3, 3)","(1, 2, 3, 1, 2, 2, 1, 3, 3)",32.222,42.963,122,145.185,55.926,222,46.666,57.407,122,24.814999999999998,35.556,122
340,85.0,P2-only,102302,49,"[2321, 1211, 1123]","[3131, 2112, 3222]","[1332, 3313, 2233]","(1, 1, 2, 2, 3, 3, 1, 2, 3)","(1, 1, 3, 1, 2, 2, 2, 3, 3)","(1, 2, 3, 1, 1, 2, 2, 3, 3)","(1, 2, 2, 1, 2, 3, 1, 3, 3)",43.333,54.074,122,137.778,48.519,222,26.665999999999997,37.407,122,33.703,44.444,122
341,81.0,P2-only,102302,50,"[1121, 2211, 2132]","[3331, 2323, 1233]","[3113, 1312, 3222]","(1, 2, 2, 1, 2, 3, 1, 3, 3)","(1, 1, 2, 1, 3, 3, 2, 2, 3)","(1, 1, 2, 2, 3, 3, 1, 2, 3)","(1, 2, 3, 2, 3, 3, 1, 1, 2)",33.703,44.444,122,145.185,55.926,222,43.333,54.074,122,20.0,30.741,122
342,64.0,P2-only,oct2301,1,"[2213, 3123, 3231]","[3312, 1111, 1333]","[2132, 1222, 2321]","(1, 2, 2, 1, 3, 3, 1, 2, 3)","(1, 2, 3, 1, 1, 3, 2, 2, 3)","(2, 3, 3, 1, 1, 3, 1, 2, 2)","(1, 3, 3, 1, 2, 3, 1, 2, 2)",32.222,42.963,122,25.185000000000002,35.926,122,101.852,12.593,222,12.963000000000001,23.704,122
343,67.0,P2-only,oct2301,2,"[1311, 2323, 2112]","[1133, 2231, 3213]","[1222, 3121, 3332]","(1, 3, 3, 1, 2, 2, 1, 2, 3)","(1, 1, 2, 1, 3, 3, 2, 2, 3)","(1, 2, 2, 1, 2, 3, 1, 3, 3)","(1, 2, 3, 1, 3, 3, 1, 2, 2)",14.443999999999999,25.185,122,145.185,55.926,222,33.703,44.444,122,21.852000000000004,32.593,122
344,52.0,P2-only,oct2301,3,"[2213, 1333, 3123]","[3311, 2131, 2322]","[1112, 1221, 3232]","(1, 2, 3, 1, 3, 3, 1, 2, 2)","(1, 2, 3, 1, 2, 3, 1, 2, 3)","(1, 2, 3, 2, 2, 3, 1, 1, 3)","(3, 3, 3, 1, 1, 2, 1, 2, 2)",21.852000000000004,32.593,122,223.33300000000003,34.074,111,21.481,32.222,122,292.963,3.704,223
